dataType,accelX,accelY,accelZ
0,23.94,-979.11,40.22
0,14.37,-981.02,42.86
0,17.60,-979.47,41.78
0,16.40,-978.99,37.11
0,13.29,-973.48,47.52
0,19.63,-978.87,43.22
0,19.03,-978.99,38.07
0,18.79,-979.95,41.66
0,17.96,-979.23,39.38
0,14.96,-978.39,42.86
0,15.56,-978.39,41.30
0,18.32,-978.27,39.15
0,16.88,-979.59,39.03
0,16.64,-978.51,40.46
0,16.64,-978.15,40.58
0,15.32,-978.15,40.10
0,17.12,-979.35,39.98
0,16.64,-978.39,41.06
0,15.44,-978.75,39.74
0,16.40,-978.51,40.22
0,15.20,-978.51,39.50
0,16.88,-978.99,40.22
0,16.40,-979.11,40.34
0,15.32,-977.91,38.79
0,16.64,-977.79,39.98
0,14.84,-979.23,39.03
0,18.56,-977.07,42.74
0,19.75,-978.63,41.78
0,17.72,-977.91,39.38
0,19.39,-976.36,44.53
0,13.89,-975.88,43.81
0,20.11,-973.24,35.55
0,16.52,-979.23,41.30
0,16.88,-977.31,45.49
0,20.95,-977.79,40.94
0,13.53,-979.11,34.96
0,20.11,-978.03,42.26
0,10.41,-984.97,39.86
0,9.22,-975.88,37.71
0,14.72,-978.75,35.91
0,16.64,-981.74,41.18
0,17.96,-980.19,42.74
0,17.24,-978.27,41.30
0,19.63,-979.59,40.22
0,19.27,-977.55,39.86
0,16.04,-978.27,45.73
0,16.88,-978.75,44.65
0,17.84,-977.79,39.50
0,17.96,-979.47,41.78
0,16.16,-979.59,43.69
0,18.44,-977.31,41.18
0,17.24,-979.59,40.82
0,17.60,-978.39,41.78
0,17.60,-978.39,43.81
0,15.80,-978.03,42.74
0,18.91,-979.11,40.58
0,17.96,-978.63,41.54
0,17.12,-979.35,42.74
0,18.08,-979.35,41.06
0,17.12,-979.47,41.54
0,18.08,-978.39,42.26
0,17.12,-978.87,42.74
0,17.60,-978.27,42.50
0,17.48,-978.27,40.34
0,16.28,-978.27,41.78
0,17.72,-978.87,42.74
0,16.16,-978.03,41.90
0,17.96,-978.39,42.02
0,16.64,-979.23,42.02
0,16.76,-978.99,42.14
0,17.72,-978.63,41.90
0,16.64,-978.27,41.18
0,18.08,-979.35,41.90
0,17.00,-977.91,42.14
0,17.36,-979.11,42.14
0,17.48,-979.11,41.30
0,17.72,-978.39,41.30
0,17.00,-979.23,42.50
0,16.64,-978.63,41.78
0,17.12,-979.11,42.50
0,17.00,-978.27,42.14
0,17.60,-978.27,41.66
0,17.12,-978.99,41.54
0,17.12,-978.03,42.38
0,17.36,-979.35,42.26
0,17.00,-978.39,42.26
0,17.60,-978.75,41.66
0,17.48,-979.11,41.90
0,17.60,-979.11,42.02
0,16.52,-978.63,42.38
0,17.48,-977.31,41.90
0,16.76,-978.03,41.42
0,17.36,-978.39,42.50
0,16.88,-978.27,41.54
0,18.20,-978.51,42.26
0,16.88,-978.51,42.14
0,16.52,-978.39,41.66
0,16.76,-978.27,42.26
0,16.76,-978.39,41.66
0,17.00,-977.91,42.26
0,16.76,-978.39,41.78
0,17.48,-978.39,42.14
0,17.48,-978.63,42.26
0,17.84,-977.79,41.90
0,17.24,-977.91,42.50
0,17.48,-977.91,41.90
0,17.60,-978.39,41.78
0,16.88,-978.15,41.78
0,16.64,-978.87,41.78
0,16.76,-978.27,42.02
0,18.20,-978.87,42.50
0,16.52,-979.71,42.62
0,17.60,-978.39,41.54
0,17.24,-979.11,41.90
0,17.00,-978.99,42.26
0,15.80,-979.35,40.82
0,19.03,-979.59,43.69
0,17.36,-977.91,40.94
0,24.54,-984.50,39.50
0,8.26,-979.47,50.40
0,18.08,-979.35,44.65
0,19.27,-979.35,22.86
0,22.63,-979.23,33.52
0,19.75,-978.15,48.84
0,13.41,-977.91,45.13
0,25.14,-981.38,32.68
0,9.82,-978.27,51.24
0,14.72,-979.47,62.73
0,14.37,-976.24,35.43
0,22.15,-978.15,27.41
0,19.03,-973.36,41.78
0,17.48,-979.95,44.29
0,19.87,-979.83,41.54
0,16.52,-979.23,45.13
0,10.06,-980.90,48.12
0,19.75,-976.24,33.04
0,13.77,-978.39,39.50
0,15.20,-979.11,52.07
0,15.08,-978.99,44.29
0,20.47,-980.43,36.63
0,17.72,-978.27,37.59
0,16.88,-978.39,44.05
0,15.44,-978.51,41.06
0,18.44,-978.75,37.59
0,17.00,-978.87,42.74
0,14.60,-978.27,45.13
0,18.91,-977.31,41.78
0,16.76,-979.35,39.26
0,19.75,-977.19,39.50
0,16.52,-978.51,43.93
0,15.44,-978.39,43.81
0,17.12,-979.11,39.74
0,17.84,-978.15,40.94
0,17.12,-978.27,42.50
0,16.76,-978.63,41.90
0,18.20,-979.35,39.98
0,17.00,-979.35,39.98
0,15.44,-978.15,41.78
0,16.64,-978.39,43.93
0,15.32,-973.24,38.79
0,19.63,-983.30,36.75
0,21.19,-977.91,44.41
0,17.60,-977.07,41.18
0,20.35,-978.63,37.47
0,17.96,-978.75,42.98
0,13.53,-978.51,46.21
0,17.24,-977.79,42.02
0,17.72,-979.35,35.31
0,17.72,-980.19,39.98
0,16.52,-977.55,41.42
0,16.64,-978.03,41.18
0,14.37,-981.74,42.14
0,19.51,-978.51,39.50
0,18.08,-978.51,35.08
0,19.15,-979.83,39.50
0,16.76,-979.11,43.10
0,15.80,-979.23,45.85
0,11.37,-979.35,36.99
0,9.10,-984.62,37.83
0,2.15,-971.93,47.52
0,12.93,-979.35,41.06
0,19.63,-981.50,36.51
0,17.12,-980.31,38.31
0,22.98,-978.39,40.34
0,16.16,-977.91,41.18
0,18.44,-980.66,42.62
0,15.08,-977.43,41.66
0,16.04,-977.31,44.65
0,17.24,-978.51,40.46
0,18.32,-978.39,39.86
0,19.03,-979.11,40.94
0,15.80,-978.51,41.30
0,17.96,-978.87,40.46
0,15.32,-978.63,41.78
0,17.60,-978.15,40.46
0,18.20,-979.59,41.66
0,16.52,-978.51,41.06
0,18.79,-978.39,41.18
0,17.60,-977.19,40.70
0,17.84,-979.95,43.34
0,17.48,-978.63,41.18
0,17.24,-977.43,41.66
0,22.74,-980.07,42.86
0,15.56,-978.39,43.22
0,-15.44,-970.37,33.52
0,28.13,-967.74,74.94
0,5.27,-977.31,32.32
0,28.61,-977.43,41.78
0,9.10,-979.59,35.91
0,26.46,-978.03,42.26
0,14.60,-979.35,36.87
0,18.44,-978.39,43.81
0,15.56,-975.28,40.22
0,18.67,-979.11,41.54
0,17.36,-979.71,42.74
0,18.67,-977.91,41.06
0,18.32,-979.23,41.42
0,15.20,-978.39,40.94
0,18.91,-979.11,41.18
0,14.96,-978.15,42.62
0,17.12,-978.51,39.86
0,17.72,-978.39,41.30
0,14.13,-979.95,41.78
0,18.91,-978.63,35.08
0,15.44,-977.55,43.69
0,15.32,-979.83,41.42
0,16.76,-977.19,39.74
0,16.04,-978.87,39.74
0,20.23,-978.99,40.46
0,16.40,-977.79,40.82
0,17.60,-979.35,41.66
0,16.16,-979.11,39.03
0,17.36,-978.63,40.94
0,16.76,-978.75,42.62
0,17.00,-978.39,40.58
0,18.20,-980.66,41.54
0,16.28,-978.15,40.82
0,18.20,-979.59,40.82
0,15.68,-978.39,41.30
0,17.72,-978.39,39.86
0,17.36,-978.87,40.34
0,15.68,-979.23,40.70
0,17.84,-978.51,41.18
0,15.80,-979.23,40.46
0,25.38,-979.35,35.08
0,-18.20,-945.35,26.70
0,29.93,-986.17,112.29
0,-7.78,-965.82,22.15
0,12.93,-970.85,59.50
0,35.43,-971.57,35.31
0,-0.84,-972.41,46.09
0,28.73,-980.31,46.09
0,12.57,-976.59,33.88
0,17.84,-982.22,48.24
0,17.72,-973.60,39.38
0,18.20,-980.78,42.38
0,16.64,-981.02,38.67
0,19.75,-974.56,41.30
0,14.84,-979.71,44.53
0,18.08,-979.11,37.59
0,20.59,-977.79,42.02
0,11.37,-977.55,46.57
0,23.82,-979.35,37.35
0,14.84,-978.15,41.42
0,19.51,-978.39,40.58
0,18.79,-978.63,40.70
0,13.41,-977.79,42.74
0,21.07,-979.11,39.74
0,14.13,-976.95,42.74
0,17.96,-978.63,42.38
0,17.72,-978.63,39.74
0,16.52,-978.39,41.18
0,17.72,-977.31,41.42
0,15.56,-977.31,40.70
0,18.79,-979.59,41.90
0,15.80,-977.67,40.10
0,18.20,-978.87,42.50
0,16.16,-979.47,42.02
0,16.76,-978.99,40.10
0,17.84,-978.51,41.90
0,16.16,-977.55,42.74
0,19.39,-978.15,40.34
0,16.16,-978.39,41.66
0,17.84,-978.75,41.42
0,17.96,-979.35,41.42
0,16.04,-977.31,41.30
0,18.20,-978.87,41.66
0,16.16,-978.75,41.06
0,17.48,-978.87,41.78
0,17.00,-979.71,40.58
0,16.28,-978.75,42.02
0,17.48,-978.39,42.14
0,16.40,-978.75,40.70
0,18.32,-978.03,40.22
0,17.12,-977.91,40.82
0,17.24,-978.87,41.30
0,17.12,-978.27,41.66
0,17.12,-978.03,41.18
0,17.84,-978.15,40.82
0,17.24,-977.79,41.90
0,18.08,-978.99,40.70
0,18.08,-978.15,40.82
0,17.36,-977.79,41.18
0,17.48,-979.47,41.30
0,16.88,-978.15,40.46
0,18.20,-978.87,41.54
0,17.48,-978.87,39.26
0,16.88,-977.67,42.38
0,14.72,-978.51,42.26
0,17.48,-978.51,39.98
0,17.12,-977.55,40.94
0,16.88,-978.39,44.29
0,18.20,-979.23,40.82
0,16.76,-978.15,39.15
0,18.67,-978.75,39.86
0,15.20,-979.11,42.26
0,17.48,-978.99,40.70
0,17.24,-978.27,39.26
0,17.36,-977.79,40.34
0,17.84,-979.23,42.14
0,16.76,-978.63,40.70
0,18.56,-979.11,39.38
0,16.88,-977.67,40.94
0,17.12,-978.87,41.54
0,18.56,-977.55,41.66
0,17.48,-977.79,39.98
0,18.44,-977.79,41.18
0,16.16,-978.27,39.15
0,17.24,-979.11,42.38
0,17.36,-977.91,40.82
0,17.60,-978.51,39.74
0,17.00,-978.51,40.94
0,17.36,-978.99,42.02
0,17.48,-978.15,41.42
0,18.20,-978.63,40.94
0,17.36,-977.91,40.70
0,16.88,-978.75,42.50
0,16.04,-978.63,41.06
0,18.20,-978.51,40.82
0,16.64,-979.35,41.06
0,17.00,-979.47,41.66
0,16.88,-978.99,40.82
0,17.36,-978.39,40.94
0,17.60,-978.63,40.82
0,16.64,-978.39,41.66
0,17.96,-978.27,40.94
0,17.36,-978.39,40.58
0,18.20,-978.15,40.70
0,16.76,-979.47,41.18
0,17.60,-978.87,38.43
0,18.91,-978.87,41.54
0,16.64,-979.11,41.78
0,17.24,-978.51,43.10
0,18.67,-979.23,39.38
0,16.88,-979.71,41.78
0,18.32,-978.51,42.38
0,15.92,-978.39,41.90
0,17.12,-978.87,40.70
0,17.12,-978.03,41.18
0,16.64,-978.51,42.14
0,17.72,-979.11,41.54
0,17.48,-979.23,41.30
0,17.84,-978.51,41.54
0,17.48,-978.75,41.90
0,17.48,-978.75,42.02
0,17.00,-978.39,40.22
0,17.72,-978.75,41.18
0,18.44,-978.15,42.02
0,16.76,-977.67,41.18
0,16.76,-978.27,41.06
0,6.46,-982.46,30.17
0,23.94,-965.46,40.94
0,12.57,-988.57,36.99
0,13.77,-979.35,41.90
0,17.36,-979.83,44.17
0,17.72,-979.11,39.62
0,18.44,-977.67,42.98
0,16.64,-980.78,39.50
0,18.20,-976.95,40.70
0,16.64,-976.83,41.18
0,16.64,-978.63,41.30
0,18.56,-977.79,41.66
0,18.20,-978.87,41.78
0,16.28,-978.27,40.94
0,18.67,-979.47,41.90
0,16.28,-978.63,41.78
0,16.64,-976.83,40.34
0,18.08,-980.07,41.54
0,17.36,-977.91,41.78
0,17.36,-978.63,40.70
0,17.24,-978.51,41.42
0,16.76,-979.83,41.42
0,17.12,-978.39,40.82
0,17.12,-980.07,41.18
0,16.76,-978.75,40.46
0,17.00,-978.27,40.34
0,16.76,-978.51,40.10
0,17.48,-977.91,40.94
0,18.32,-977.79,40.10
0,16.64,-979.95,40.10
0,17.36,-978.51,40.58
0,17.84,-978.15,39.74
0,17.48,-978.87,40.58
0,17.36,-979.23,40.34
0,16.88,-978.39,40.58
0,17.12,-977.79,40.70
0,17.60,-977.31,41.54
0,16.88,-978.39,40.70
0,16.76,-978.51,41.18
0,16.76,-979.23,40.58
0,16.64,-978.99,41.66
0,17.24,-978.51,41.42
0,17.00,-978.87,40.46
0,16.88,-978.63,40.94
0,17.24,-978.39,42.26
0,17.60,-978.63,41.30
0,18.20,-978.51,40.34
0,16.52,-978.15,41.66
0,18.32,-979.11,43.57
0,16.64,-978.15,40.22
0,16.52,-978.27,42.86
0,16.28,-979.59,41.06
0,17.12,-978.39,41.18
0,18.08,-978.15,39.74
0,19.03,-978.87,42.86
0,16.40,-978.03,42.98
0,17.48,-977.91,42.26
0,16.52,-979.71,37.35
0,17.96,-979.47,43.45
0,14.60,-978.99,44.29
0,18.56,-978.99,39.74
0,17.96,-976.95,36.87
0,16.28,-976.59,45.49
0,3.71,-961.87,31.72
0,51.48,-1002.57,23.22
0,21.43,-992.64,49.44
0,14.13,-981.02,23.34
0,30.17,-979.23,35.43
0,14.60,-977.67,36.15
0,13.89,-980.66,54.23
0,11.97,-984.85,38.07
0,14.25,-980.31,34.84
0,17.12,-974.08,49.44
0,10.89,-978.63,44.41
0,20.11,-981.62,41.30
0,18.20,-978.87,36.87
0,19.27,-977.43,43.57
0,17.48,-979.83,44.53
0,16.28,-977.91,38.19
0,18.56,-978.03,39.26
0,14.48,-977.79,44.17
0,17.48,-979.59,42.86
0,17.96,-978.27,39.50
0,17.00,-978.51,41.78
0,18.08,-979.59,42.50
0,16.04,-977.55,42.38
0,17.96,-978.27,39.86
0,16.28,-978.99,42.50
0,17.48,-978.63,42.26
0,17.24,-977.91,41.54
0,16.76,-978.75,39.74
0,18.44,-978.27,40.46
0,16.40,-977.55,42.86
0,2.75,-964.62,35.43
0,51.60,-959.48,28.25
0,25.50,-988.57,38.91
0,11.49,-973.48,51.60
0,16.52,-982.94,48.72
0,19.03,-984.14,34.24
0,13.17,-978.39,38.31
0,19.87,-975.16,57.82
0,27.05,-980.07,30.77
0,20.47,-979.59,36.03
0,17.00,-976.00,53.75
0,13.17,-977.79,43.57
0,23.10,-978.39,31.00
0,16.04,-977.55,41.06
0,17.24,-976.95,49.80
0,16.64,-979.83,40.94
0,18.44,-978.03,34.12
0,17.36,-977.67,43.81
0,13.17,-979.11,47.29
0,18.56,-978.39,39.03
0,17.72,-978.75,36.63
0,16.64,-979.71,42.74
0,16.88,-979.35,43.57
0,16.52,-978.75,38.91
0,17.96,-979.71,39.50
0,15.80,-977.07,42.62
0,16.64,-979.35,43.93
0,17.12,-979.11,40.34
0,18.56,-978.87,39.15
0,17.12,-979.47,42.26
0,15.80,-978.63,42.62
0,18.44,-978.99,39.98
0,17.36,-978.63,40.22
0,17.72,-978.03,42.02
0,16.88,-978.63,42.38
0,15.56,-978.15,41.18
0,17.96,-979.11,40.22
0,16.16,-978.99,42.14
0,17.36,-978.99,42.50
0,17.96,-978.27,40.34
0,17.24,-978.87,40.46
0,17.60,-978.39,41.66
0,17.48,-978.99,42.38
0,17.60,-978.99,40.22
0,17.72,-978.99,41.18
0,16.64,-979.59,41.42
0,17.36,-978.75,41.66
0,17.36,-978.51,41.06
0,17.60,-979.47,40.94
0,17.12,-977.55,41.66
0,17.60,-978.03,41.30
0,17.00,-978.51,40.46
0,16.76,-978.75,41.66
0,17.96,-979.23,41.54
0,17.12,-978.75,41.90
0,16.76,-978.51,41.30
0,16.88,-979.35,40.94
0,17.36,-979.11,42.02
0,17.36,-978.51,41.54
0,16.76,-978.63,40.58
0,17.84,-979.23,40.94
0,16.52,-978.15,40.82
0,16.40,-979.35,41.18
0,16.40,-978.99,41.54
0,17.12,-978.63,40.70
0,17.60,-978.87,40.46
0,17.12,-978.75,41.18
0,17.36,-978.99,41.42
0,17.48,-978.99,40.82
0,17.24,-978.27,41.54
0,17.60,-978.87,41.18
0,16.64,-978.39,40.94
0,17.12,-979.47,40.58
0,17.72,-977.79,41.18
0,16.64,-977.67,40.94
0,17.00,-978.63,41.30
0,17.00,-978.87,41.54
0,17.36,-979.83,41.06
0,17.24,-978.75,41.06
0,16.88,-978.51,41.90
0,18.20,-978.27,40.58
0,17.24,-978.27,41.54
0,17.12,-978.75,40.70
0,16.88,-978.27,40.70
0,18.08,-979.11,40.58
0,16.64,-978.51,41.06
0,18.56,-978.51,41.18
0,17.12,-978.51,40.70
0,17.72,-978.27,41.66
0,16.28,-978.99,40.22
0,17.24,-978.15,41.78
0,16.64,-978.15,40.46
0,17.36,-978.27,41.06
0,17.12,-977.43,41.42
0,17.00,-978.03,40.34
0,17.72,-978.15,40.70
0,17.24,-978.39,41.42
0,16.88,-978.99,41.42
0,18.08,-978.39,41.42
0,17.12,-978.75,41.18
0,17.48,-978.27,41.90
0,17.24,-979.47,41.18
0,17.96,-977.31,40.82
0,17.36,-978.63,41.06
0,16.64,-978.51,40.82
0,17.12,-978.63,41.78
0,17.12,-978.63,40.82
0,17.96,-978.63,40.70
0,16.64,-979.35,40.58
0,17.84,-978.15,41.42
0,17.00,-978.51,40.70
0,16.88,-978.39,41.18
0,17.24,-978.15,40.82
0,17.72,-978.39,41.54
0,17.60,-978.63,41.18
0,17.24,-978.63,41.54
0,17.00,-979.35,40.82
0,17.00,-978.99,41.18
0,17.36,-978.75,40.70
0,16.88,-978.51,41.54
0,17.00,-978.03,41.78
0,16.76,-979.23,41.30
0,17.24,-978.63,41.30
0,16.76,-978.39,40.94
0,17.00,-979.35,41.18
0,17.48,-978.63,40.82
0,18.20,-978.75,40.94
0,17.24,-979.59,41.18
0,17.36,-978.39,40.70
0,17.72,-978.99,41.42
0,17.12,-978.51,41.42
0,17.24,-978.99,41.18
0,17.24,-978.51,41.90
0,16.88,-978.63,41.42
0,17.96,-978.15,41.78
0,17.60,-977.79,42.26
0,17.84,-980.66,42.62
0,17.24,-978.39,41.54
0,17.72,-977.67,40.70
0,17.48,-978.39,40.46
0,16.76,-980.07,41.30
0,16.76,-978.75,41.06
0,17.12,-978.51,41.18
0,17.96,-978.63,41.66
0,15.56,-892.92,38.91
0,16.28,-967.98,51.83
0,16.64,-976.00,46.45
0,16.04,-978.99,39.74
0,17.00,-977.19,39.50
0,16.76,-978.27,38.91
0,20.35,-983.06,40.34
0,16.16,-976.36,42.86
0,17.36,-978.15,40.58
0,18.56,-984.14,33.04
0,17.48,-980.43,35.67
0,17.84,-978.39,38.07
0,17.00,-978.63,37.71
0,17.24,-976.83,37.71
0,17.48,-978.39,35.55
0,17.60,-978.03,36.63
0,17.96,-978.39,37.95
0,18.32,-978.51,38.91
0,17.48,-976.36,36.75
0,18.56,-986.65,40.46
0,17.48,-971.33,47.17
0,18.79,-981.02,30.17
0,19.75,-976.71,40.70
0,16.76,-979.59,44.17
0,17.72,-978.75,37.47
0,18.08,-979.95,35.19
0,18.56,-979.35,35.67
0,16.88,-978.03,40.94
0,16.76,-978.27,40.70
0,19.15,-978.39,38.67
0,18.32,-978.51,37.83
0,17.24,-978.75,40.82
0,17.84,-978.39,38.79
0,18.08,-978.39,38.79
0,18.44,-978.39,38.67
0,17.36,-978.51,40.22
0,18.44,-979.11,38.91
0,17.48,-979.23,37.23
0,18.44,-978.39,36.99
0,16.52,-978.63,39.38
0,17.72,-979.47,38.07
0,17.84,-978.51,37.23
0,17.12,-979.23,36.03
0,17.96,-978.51,37.35
0,17.48,-978.75,38.07
0,18.44,-978.51,37.83
0,17.36,-978.87,37.35
0,17.36,-979.71,37.59
0,18.91,-978.51,38.07
0,18.08,-978.99,37.59
0,18.20,-978.15,37.47
0,17.84,-977.79,38.79
0,17.36,-978.27,37.95
0,17.96,-978.63,37.35
0,18.20,-978.39,37.47
0,16.88,-979.59,38.07
0,17.00,-977.91,39.38
0,18.08,-978.99,39.62
0,17.36,-978.15,38.31
0,17.48,-979.47,38.55
0,16.40,-975.64,40.22
0,16.40,-979.71,40.94
0,22.15,-960.43,38.67
0,15.80,-980.90,40.94
0,15.44,-980.07,27.89
0,13.89,-979.83,38.31
0,22.86,-972.52,28.97
0,18.67,-980.19,39.86
0,16.52,-978.51,44.77
0,17.84,-979.83,33.88
0,19.15,-977.43,33.04
0,17.00,-979.83,39.03
0,16.64,-978.87,42.38
0,18.20,-978.15,38.31
0,18.79,-976.95,36.15
0,17.48,-979.35,39.26
0,16.88,-978.51,40.10
0,16.76,-978.15,36.99
0,18.67,-978.39,37.83
0,17.60,-979.95,40.46
0,16.88,-979.71,39.98
0,18.08,-978.75,36.75
0,18.56,-978.27,37.71
0,17.00,-978.75,39.98
0,17.72,-977.91,39.74
0,17.60,-979.35,39.50
0,19.15,-978.15,38.19
0,18.08,-979.23,38.79
0,17.60,-979.35,40.10
0,17.60,-978.75,39.26
0,18.44,-978.15,38.91
0,18.44,-979.35,39.15
0,17.48,-977.91,39.03
0,17.72,-979.11,39.03
0,17.84,-978.51,38.43
0,17.72,-978.87,38.79
0,17.48,-978.51,39.74
0,18.79,-978.87,38.55
0,17.72,-978.63,38.07
0,17.96,-978.87,39.15
0,18.20,-978.27,39.03
0,17.48,-978.87,38.67
0,18.08,-978.03,39.26
0,17.36,-978.27,39.86
0,17.48,-978.03,36.87
0,18.91,-976.00,40.34
0,17.00,-979.11,38.19
0,18.44,-978.27,39.50
0,24.90,-974.32,39.86
0,25.26,-977.43,65.00
0,19.63,-976.95,42.62
0,27.05,-976.95,42.86
0,14.96,-980.31,30.65
0,14.01,-980.19,41.30
0,15.92,-982.70,45.73
0,9.58,-977.55,37.47
0,20.11,-979.71,33.88
0,19.15,-983.78,30.17
0,16.16,-978.39,39.62
0,20.95,-978.63,44.89
0,16.52,-978.27,33.64
0,17.60,-977.31,37.35
0,17.12,-979.23,40.46
0,17.12,-978.87,40.46
0,20.59,-980.07,37.35
0,19.87,-1021.73,50.40
0,23.46,-969.53,47.05
0,2.15,-950.14,22.03
0,4.91,-970.01,36.75
0,14.13,-958.76,52.19
0,32.80,-1413.06,277.73
0,-32.56,-943.32,4.43
0,-25.86,-992.04,77.09
0,-11.61,-1038.60,12.09
0,35.19,-1031.06,32.32
0,19.51,-1011.55,25.26
0,3.71,-963.79,38.19
0,24.78,-980.78,37.71
0,24.06,-975.76,16.40
0,14.72,-977.79,32.44
0,16.16,-980.66,37.59
0,26.58,-979.11,26.93
0,18.08,-978.99,22.86
0,20.35,-976.83,45.97
0,34.60,-942.96,78.17
0,-1.68,-977.91,23.82
0,17.60,-978.03,40.70
0,19.51,-981.38,43.69
0,20.35,-979.59,17.72
0,16.64,-982.22,31.96
0,14.60,-980.31,33.04
0,11.01,-976.48,24.18
0,17.24,-980.19,24.78
0,4.91,-974.80,31.60
0,15.92,-977.31,34.48
0,20.95,-979.71,28.49
0,12.45,-978.39,29.09
0,19.63,-978.27,34.84
0,12.33,-979.11,35.31
0,19.39,-980.43,29.33
0,15.92,-978.87,21.67
0,11.61,-977.79,37.47
0,22.63,-979.23,31.00
0,9.70,-977.67,24.06
0,16.52,-980.31,24.54
0,14.84,-976.48,26.82
0,14.96,-978.39,32.80
0,15.92,-978.03,29.69
0,16.76,-978.27,27.17
0,13.65,-980.90,30.65
0,6.46,-983.90,26.10
0,14.01,-981.26,32.68
0,14.01,-979.71,36.15
0,18.67,-979.23,33.04
0,11.97,-981.50,32.92
0,16.40,-981.38,30.17
0,19.15,-980.07,36.87
0,14.48,-976.24,36.15
0,16.76,-979.83,33.28
0,16.64,-982.58,34.00
0,9.46,-978.27,31.12
0,24.42,-975.88,32.44
0,15.32,-979.59,33.16
0,18.44,-978.51,31.84
0,20.95,-977.79,35.55
0,12.93,-978.27,31.96
0,19.39,-979.95,33.40
0,17.12,-978.87,31.60
0,17.60,-978.39,32.56
0,17.60,-978.87,33.52
0,16.64,-978.75,33.28
0,16.04,-978.27,34.12
0,17.36,-978.75,32.20
0,16.64,-979.11,33.40
0,17.12,-978.87,33.88
0,17.36,-979.35,33.52
0,16.28,-978.75,33.28
0,18.56,-979.23,32.32
0,15.32,-979.11,34.36
0,15.44,-978.63,34.24
0,16.52,-977.79,31.84
0,16.64,-979.11,32.92
0,17.24,-978.51,33.52
0,15.80,-978.99,34.12
0,16.28,-978.51,32.32
0,17.00,-979.11,33.76
0,16.28,-979.71,32.44
0,16.52,-978.27,33.64
0,16.76,-979.11,32.08
0,18.08,-978.63,33.64
0,17.00,-979.35,32.20
0,16.88,-979.35,34.00
0,17.12,-978.39,33.40
0,17.12,-978.39,34.60
0,17.00,-978.75,31.72
0,16.28,-978.27,34.72
0,16.88,-978.87,33.52
0,15.08,-978.99,33.52
0,17.00,-979.35,32.56
0,17.24,-978.99,33.40
0,16.64,-978.39,35.31
0,17.36,-979.95,33.16
0,19.03,-979.23,33.16
0,17.96,-976.36,30.29
0,19.87,-978.63,36.99
0,15.44,-978.63,34.00
0,17.72,-978.39,33.88
0,15.20,-979.23,33.88
0,18.08,-978.99,31.84
0,16.40,-979.83,34.72
0,17.00,-978.51,32.44
0,17.00,-979.59,32.44
0,15.68,-979.11,34.00
0,15.32,-975.16,31.24
0,18.56,-978.75,33.16
0,17.00,-978.87,31.72
0,17.12,-979.35,31.84
0,16.04,-977.55,34.12
0,17.96,-978.39,31.96
0,17.00,-978.51,32.20
0,17.24,-978.51,35.19
0,17.84,-977.79,33.04
0,16.76,-978.51,33.88
0,19.15,-979.83,33.40
0,17.12,-982.10,31.00
0,15.92,-978.39,31.84
0,19.27,-980.55,35.67
0,16.16,-978.03,33.76
0,20.95,-979.23,37.23
0,14.25,-980.19,33.76
0,22.98,-972.17,43.45
0,15.32,-960.79,36.51
0,21.79,-982.94,26.34
0,18.08,-979.35,33.88
0,14.60,-983.66,56.62
0,10.18,-981.50,19.27
0,28.25,-979.23,26.70
0,19.27,-984.26,34.84
0,13.41,-980.31,48.24
0,27.29,-981.74,23.34
0,31.36,-977.19,28.25
0,17.84,-980.78,54.23
0,10.18,-983.90,8.14
0,11.13,-960.31,16.76
0,27.05,-978.03,45.61
0,14.13,-977.07,38.19
0,10.06,-981.38,30.53
0,22.27,-979.83,25.98
0,13.17,-977.31,35.31
0,17.48,-980.07,40.94
0,21.67,-978.63,28.85
0,17.48,-978.87,30.41
0,14.25,-977.67,38.55
0,16.04,-978.15,34.72
0,18.79,-979.71,32.68
0,18.67,-979.95,32.56
0,17.60,-978.87,36.27
0,15.56,-979.71,36.75
0,19.75,-978.63,30.29
0,17.96,-978.63,32.20
0,16.04,-978.63,37.35
0,18.08,-979.23,35.19
0,16.88,-978.51,32.56
0,18.20,-978.99,33.28
0,16.52,-978.63,34.48
0,16.04,-977.67,35.55
0,17.60,-978.75,33.52
0,17.72,-978.87,32.20
0,17.24,-979.83,34.60
0,17.24,-978.75,34.84
0,18.20,-979.59,32.92
0,17.36,-977.91,34.00
0,16.76,-978.15,34.48
0,17.48,-979.11,34.24
0,17.72,-978.39,33.16
0,18.56,-978.15,33.88
0,17.12,-978.51,34.84
0,17.12,-980.07,34.96
0,18.32,-978.87,33.40
0,16.76,-979.11,33.40
0,16.76,-976.71,34.00
0,17.96,-977.43,34.12
0,18.08,-978.03,33.28
0,19.15,-977.91,33.04
0,18.44,-977.43,33.52
0,17.48,-978.87,33.88
0,17.96,-978.99,33.64
0,16.28,-977.43,33.40
0,17.00,-978.75,33.76
0,17.84,-978.87,34.24
0,18.20,-978.15,33.28
0,17.72,-978.87,33.76
0,16.64,-978.63,33.76
0,17.84,-978.27,34.60
0,17.72,-978.63,34.48
0,18.79,-978.15,34.00
0,17.12,-978.63,34.96
0,17.84,-978.75,34.36
0,16.88,-978.99,34.72
0,17.96,-978.87,33.64
0,16.76,-978.99,33.64
0,18.20,-978.27,34.84
0,17.60,-978.63,32.92
0,18.56,-979.71,32.92
0,17.12,-978.99,34.24
0,17.84,-979.35,36.87
0,16.88,-980.31,32.20
0,17.48,-978.87,32.92
0,17.72,-978.99,34.48
0,16.52,-979.59,35.08
0,18.32,-978.99,34.36
0,17.48,-979.11,32.80
0,17.12,-978.87,34.84
0,17.00,-979.23,35.55
0,17.00,-979.71,34.00
0,18.08,-978.27,33.40
0,17.36,-979.95,34.60
0,18.08,-979.47,34.96
0,17.60,-979.71,35.19
0,17.12,-979.47,34.72
0,17.72,-978.99,34.24
0,17.72,-978.87,34.72
0,17.72,-979.11,35.79
0,18.20,-979.35,33.52
0,17.00,-978.27,34.36
0,16.76,-978.51,34.60
0,17.00,-979.59,34.36
0,17.60,-978.27,33.88
0,17.96,-978.99,33.88
0,17.60,-978.99,34.24
0,17.36,-978.87,34.48
0,17.60,-979.35,34.48
0,17.00,-979.71,33.88
0,17.12,-978.75,34.24
0,18.08,-978.27,34.00
0,17.84,-978.39,33.52
0,17.00,-977.79,34.00
0,18.20,-978.99,34.12
0,17.36,-978.51,34.84
0,17.36,-978.39,34.72
0,17.12,-978.39,34.48
0,17.24,-977.67,34.00
0,17.36,-978.39,34.12
0,17.96,-978.63,34.48
0,17.48,-979.35,34.00
0,17.48,-978.63,34.00
0,17.84,-981.50,34.48
0,22.03,-955.29,50.04
0,20.23,-994.79,31.72
0,20.11,-979.11,1.68
0,16.16,-981.26,39.50
0,15.08,-981.26,39.86
0,21.43,-976.48,30.41
0,17.48,-979.35,29.57
0,16.52,-980.19,36.03
0,17.24,-977.91,42.02
0,14.96,-978.87,26.34
0,17.00,-979.23,35.55
0,17.00,-979.71,37.59
0,17.96,-980.78,31.84
0,17.12,-979.71,32.32
0,15.56,-976.71,35.55
0,18.56,-969.29,35.08
0,15.68,-976.71,32.08
0,18.44,-981.14,33.88
0,22.51,-980.78,28.97
0,11.61,-986.41,31.96
0,13.65,-979.59,36.03
0,20.35,-974.44,20.59
0,0.96,-977.19,38.91
0,24.90,-972.88,53.99
0,24.90,-977.79,20.35
0,14.84,-980.31,22.27
0,23.94,-975.40,40.46
0,10.30,-977.79,38.79
0,24.78,-979.11,23.22
0,39.26,-1049.38,6.70
0,2.87,-980.07,34.48
0,-4.31,-990.24,16.40
0,31.36,-984.74,32.56
0,19.27,-981.74,23.70
0,15.44,-978.51,33.64
0,17.12,-980.43,41.90
0,17.84,-978.63,26.70
0,20.47,-979.71,31.12
0,11.85,-978.87,40.34
0,19.63,-980.90,34.96
0,18.79,-981.26,29.69
0,17.24,-978.15,35.31
0,18.08,-978.87,36.27
0,14.96,-979.35,36.03
0,20.11,-978.87,30.53
0,17.24,-978.03,34.48
0,16.52,-980.66,37.95
0,18.44,-979.47,32.56
0,17.12,-978.63,32.68
0,19.63,-979.71,31.24
0,14.72,-978.63,33.88
0,17.72,-979.95,36.03
0,16.16,-977.67,33.52
0,19.15,-978.87,32.56
0,16.76,-978.03,32.80
0,17.36,-978.99,35.91
0,17.24,-978.87,34.36
0,15.92,-979.59,32.08
0,19.03,-978.99,32.68
0,16.28,-978.51,34.36
0,17.36,-978.15,34.72
0,17.72,-978.99,32.68
0,17.24,-978.87,32.80
0,17.24,-977.91,32.80
0,16.28,-978.63,33.76
0,17.72,-978.87,33.28
0,16.40,-978.27,33.52
0,17.48,-977.79,33.16
0,17.36,-979.23,33.64
0,17.24,-978.39,33.52
0,17.36,-979.35,32.80
0,15.92,-978.99,33.04
0,16.52,-978.15,33.40
0,16.40,-978.51,33.40
0,16.64,-978.75,32.92
0,17.96,-978.87,32.68
0,16.40,-978.75,33.28
0,17.24,-978.75,33.04
0,16.76,-978.99,32.20
0,16.88,-979.23,34.12
0,17.12,-978.51,33.64
0,16.64,-978.63,32.56
0,17.36,-978.75,32.68
0,16.88,-978.51,32.92
0,16.64,-978.99,33.64
0,16.52,-978.87,33.40
0,17.24,-978.75,32.44
0,18.44,-978.99,32.56
0,17.36,-978.39,33.64
0,17.72,-978.39,33.76
0,16.64,-978.63,33.64
0,17.48,-978.51,32.80
0,16.16,-978.99,33.40
0,16.64,-978.75,33.76
0,17.84,-979.11,33.64
0,16.28,-979.23,32.44
0,17.72,-978.75,33.52
0,17.36,-978.99,34.12
0,14.01,-979.23,33.76
0,16.88,-980.31,32.08
0,13.53,-978.63,37.59
0,17.36,-978.63,33.88
0,18.32,-978.03,30.53
0,16.28,-979.35,39.38
0,16.88,-978.15,36.27
0,13.17,-978.27,29.93
0,22.39,-978.99,35.19
0,15.80,-978.75,35.55
0,16.76,-978.87,35.91
0,16.64,-978.87,29.93
0,12.09,-978.75,32.56
0,13.77,-978.27,37.59
0,12.81,-980.55,33.16
0,17.60,-977.91,18.08
0,17.36,-982.70,2.75
0,14.60,-977.91,-5.03
0,24.06,-987.97,10.65
0,18.79,-974.80,15.56
0,15.56,-975.28,23.94
0,21.07,-978.63,18.44
0,17.48,-977.43,3.47
0,5.03,-977.55,4.91
0,20.35,-981.50,6.70
0,14.25,-978.15,17.36
0,22.15,-981.26,12.57
0,16.28,-978.03,9.46
0,17.48,-980.07,14.01
0,17.12,-974.80,18.20
0,19.99,-980.07,14.84
0,17.84,-980.19,18.44
0,11.97,-978.75,15.44
0,18.08,-978.75,16.04
0,13.29,-979.35,14.60
0,19.15,-979.71,17.60
0,17.00,-978.75,20.35
0,14.60,-977.79,17.24
0,19.27,-978.15,16.04
0,14.84,-978.75,16.04
0,19.39,-978.51,18.32
0,17.12,-977.79,17.12
0,17.36,-978.75,17.00
0,17.00,-978.39,17.60
0,18.56,-979.71,16.64
0,16.16,-980.66,16.52
0,17.72,-978.27,16.40
0,14.72,-979.35,16.52
0,15.80,-979.11,18.08
0,16.28,-977.79,14.96
0,18.32,-978.51,16.52
0,15.80,-978.99,18.20
0,17.24,-979.59,18.56
0,15.20,-979.47,17.84
0,18.08,-976.83,12.45
0,17.48,-977.67,15.56
0,17.60,-980.19,25.38
0,37.35,-998.02,37.11
0,6.82,-978.51,17.48
0,26.34,-976.59,24.54
0,19.15,-973.72,18.08
0,10.65,-975.88,11.13
0,18.67,-975.64,24.54
0,17.24,-977.67,18.44
0,16.52,-979.59,16.28
0,18.44,-978.39,13.17
0,16.52,-978.03,16.28
0,10.18,-977.19,20.47
0,18.20,-980.19,22.15
0,14.37,-977.55,17.84
0,14.84,-974.20,14.96
0,21.91,-977.67,17.84
0,13.17,-977.79,18.08
0,16.28,-978.99,23.94
0,17.72,-977.31,17.96
0,16.04,-979.47,18.44
0,18.20,-973.60,13.53
0,16.52,-987.97,20.11
0,11.37,-974.08,21.91
0,20.83,-976.36,21.07
0,21.55,-972.29,8.86
0,22.63,-983.90,12.81
0,15.80,-977.43,20.95
0,19.75,-977.31,20.71
0,17.72,-976.95,13.53
0,18.67,-977.55,17.24
0,16.04,-976.24,22.15
0,16.52,-977.07,18.79
0,17.24,-978.99,15.32
0,15.20,-977.67,17.84
0,16.88,-978.87,20.11
0,15.92,-978.39,19.51
0,16.52,-980.07,17.72
0,17.60,-978.63,16.16
0,14.96,-978.51,20.23
0,15.92,-979.23,19.75
0,17.24,-978.15,17.72
0,17.00,-978.15,16.76
0,17.96,-977.91,19.87
0,16.40,-980.31,18.56
0,14.60,-977.79,15.56
0,17.12,-978.63,19.51
0,16.28,-978.75,17.00
0,17.00,-978.87,16.64
0,16.88,-978.63,15.80
0,16.28,-978.99,18.08
0,15.44,-978.03,21.07
0,15.08,-978.63,21.43
0,21.19,-978.39,17.72
0,19.39,-978.15,14.60
0,14.72,-978.63,18.67
0,16.16,-978.27,21.67
0,17.48,-977.91,16.04
0,18.08,-978.39,14.72
0,17.60,-979.35,17.84
0,14.60,-978.75,18.79
0,15.92,-978.51,15.32
0,17.72,-979.11,15.68
0,16.28,-978.75,17.84
0,16.16,-978.99,20.35
0,15.56,-978.27,16.88
0,16.64,-977.79,15.68
0,17.00,-979.95,17.12
0,14.72,-978.75,16.40
0,16.40,-951.46,18.08
0,13.53,-978.63,17.36
0,18.67,-984.50,15.44
0,14.01,-983.18,12.21
0,16.88,-978.87,21.43
0,14.25,-979.35,21.79
0,17.24,-977.43,17.24
0,17.00,-979.35,16.28
0,14.25,-979.11,20.71
0,16.52,-978.75,19.75
0,17.00,-978.99,15.08
0,18.79,-980.31,16.40
0,14.13,-979.95,20.23
0,17.12,-979.23,16.16
0,16.04,-979.71,15.44
0,15.32,-977.67,19.87
0,16.76,-975.40,19.03
0,15.92,-976.83,21.07
0,17.24,-980.78,14.84
0,18.08,-978.03,17.24
0,15.56,-980.19,14.96
0,15.80,-976.95,20.35
0,17.72,-977.67,14.01
0,17.12,-980.66,13.41
0,16.88,-979.71,20.95
0,14.48,-978.27,19.63
0,17.36,-979.59,16.28
0,15.08,-978.99,14.37
0,15.32,-978.75,22.74
0,16.76,-977.67,20.71
0,18.56,-980.19,15.92
0,17.24,-978.15,16.04
0,17.36,-986.29,15.80
0,15.32,-978.75,15.32
0,19.51,-978.63,15.32
0,18.56,-979.59,18.56
0,15.08,-979.47,19.27
0,16.64,-978.15,18.79
0,15.92,-977.67,16.76
0,16.04,-978.27,17.00
0,16.28,-979.23,19.03
0,15.92,-979.83,18.91
0,16.16,-979.71,17.48
0,17.12,-979.23,16.76
0,16.04,-979.23,18.67
0,17.48,-978.75,18.20
0,15.68,-978.87,17.84
0,17.48,-977.67,16.52
0,16.64,-979.95,17.60
0,16.52,-978.99,20.47
0,15.56,-978.99,16.88
0,16.28,-978.87,17.48
0,17.24,-978.63,18.20
0,16.28,-978.15,18.67
0,16.16,-979.83,18.44
0,15.32,-978.39,17.72
0,17.84,-978.63,17.96
0,17.36,-978.15,18.56
0,16.64,-980.07,18.44
0,17.12,-978.75,17.72
0,16.16,-978.99,17.72
0,16.64,-979.35,18.67
0,16.28,-978.27,19.03
0,16.28,-978.15,17.96
0,16.16,-978.99,17.84
0,17.00,-978.87,18.32
0,16.40,-978.87,17.72
0,16.40,-978.75,18.08
0,17.24,-978.51,17.48
0,16.16,-978.15,17.96
0,16.88,-980.07,18.20
0,17.72,-979.23,18.20
0,16.76,-978.99,17.84
0,16.28,-978.63,17.60
0,17.24,-979.11,17.72
0,16.64,-979.35,19.03
0,16.64,-978.51,18.08
0,17.00,-978.99,17.48
0,16.76,-978.51,18.91
0,16.64,-977.91,19.63
0,17.24,-981.62,16.28
0,14.60,-976.12,17.84
0,15.56,-980.19,19.63
0,19.03,-978.63,20.11
0,18.67,-978.87,21.19
0,19.03,-979.71,17.48
0,14.84,-980.31,17.24
0,15.80,-978.99,19.63
0,15.92,-978.87,18.20
0,17.36,-978.03,16.16
0,18.08,-978.39,17.00
0,15.44,-978.87,20.11
0,14.96,-978.63,18.44
0,18.79,-978.39,17.60
0,17.84,-979.59,15.44
0,16.88,-980.78,18.08
0,14.72,-978.03,20.11
0,17.72,-978.87,19.03
0,18.32,-977.43,17.36
0,18.91,-978.03,15.56
0,17.12,-978.63,18.32
0,14.96,-979.47,19.27
0,17.24,-979.11,17.24
0,16.52,-979.23,16.52
0,17.72,-978.39,17.60
0,16.04,-979.71,17.60
0,15.56,-978.51,19.03
0,16.52,-980.07,16.88
0,16.16,-978.39,16.88
0,17.00,-978.27,18.56
0,16.88,-979.23,17.96
0,17.00,-978.51,18.20
0,16.88,-978.99,17.60
0,17.00,-979.23,16.52
0,16.40,-978.99,18.08
0,16.40,-979.11,17.60
0,16.64,-977.91,17.96
0,16.40,-979.11,16.88
0,16.40,-978.63,18.20
0,15.44,-978.87,17.84
0,15.80,-978.27,18.08
0,17.00,-978.63,17.24
0,16.76,-978.99,16.88
0,16.52,-978.99,18.44
0,15.92,-979.11,17.00
0,16.76,-978.63,18.56
0,17.36,-978.27,16.40
0,16.64,-978.99,17.60
0,15.56,-979.47,17.96
0,15.68,-979.71,17.96
0,16.64,-979.11,17.48
0,17.36,-978.99,18.20
0,16.16,-977.67,17.84
0,17.00,-979.71,18.79
0,16.16,-978.75,17.24
0,17.72,-979.23,17.36
0,16.52,-978.87,17.60
0,17.12,-978.63,18.56
0,18.08,-979.23,17.48
0,16.28,-978.75,16.52
0,16.64,-978.75,20.47
0,14.96,-978.51,18.79
0,19.63,-978.99,13.77
0,18.20,-978.27,15.56
0,14.84,-978.27,20.11
0,16.16,-978.99,18.79
0,15.92,-978.51,14.84
0,17.96,-979.47,17.48
0,15.92,-978.87,17.84
0,15.92,-979.71,19.39
0,14.96,-978.63,16.88
0,17.48,-977.91,18.44
0,17.48,-978.63,17.00
0,16.88,-978.63,18.32
0,17.48,-978.99,17.60
0,16.64,-978.99,18.32
0,15.44,-978.99,16.76
0,16.28,-978.63,17.24
0,16.16,-979.11,17.84
0,14.60,-978.15,17.84
0,16.16,-978.75,17.60
0,16.52,-978.99,18.08
0,16.52,-978.39,16.76
0,15.68,-979.11,17.24
0,17.00,-978.03,17.00
0,16.52,-978.03,16.64
0,17.60,-978.39,17.60
0,15.92,-977.31,17.36
0,16.28,-978.75,18.08
0,15.44,-978.51,15.92
0,17.12,-979.59,15.68
0,16.76,-979.59,15.92
0,16.40,-979.23,17.00
0,17.36,-979.11,18.56
0,17.48,-978.99,17.00
0,16.76,-978.03,16.52
0,16.04,-978.63,18.67
0,15.32,-978.75,17.24
0,16.28,-978.87,17.72
0,17.72,-979.11,17.48
0,17.12,-978.63,17.60
0,16.76,-978.39,19.27
0,15.68,-980.19,18.32
0,17.12,-978.63,17.60
0,16.88,-979.11,16.88
0,16.40,-979.23,17.84
0,16.64,-979.23,17.84
0,17.24,-978.15,17.72
0,17.36,-979.11,16.88
0,18.08,-979.11,17.72
0,15.68,-978.63,17.00
0,17.24,-978.03,17.60
0,16.04,-979.11,17.12
0,18.08,-979.71,16.88
0,14.84,-980.19,17.00
0,16.04,-979.59,22.15
0,14.72,-977.79,19.87
0,19.27,-978.15,14.96
0,17.00,-978.99,14.72
0,15.32,-978.99,23.22
0,15.20,-979.35,18.44
0,18.79,-978.15,14.72
0,16.76,-979.35,15.56
0,15.44,-978.51,20.71
0,14.72,-976.83,22.03
0,17.48,-978.87,12.09
0,19.03,-976.71,15.20
0,15.20,-978.99,20.11
0,15.08,-980.07,19.75
0,16.64,-978.39,19.27
0,16.64,-978.87,15.56
0,17.72,-978.75,18.44
0,17.24,-980.31,21.31
0,17.48,-977.43,17.60
0,18.44,-978.87,15.92
0,12.93,-982.70,22.03
0,15.32,-978.03,20.35
0,13.89,-980.07,16.40
0,17.96,-977.79,17.60
0,18.20,-979.11,19.99
0,15.56,-978.63,21.31
0,17.12,-978.63,18.08
0,16.16,-979.35,16.04
0,18.20,-976.00,18.20
0,18.91,-977.55,20.95
0,19.27,-977.31,14.60
0,20.47,-977.43,17.48
0,15.32,-979.11,14.96
0,16.16,-977.91,19.03
0,13.29,-979.71,20.71
0,18.91,-978.75,17.12
0,19.15,-978.75,15.20
0,15.08,-977.79,18.91
0,16.52,-978.99,19.87
0,16.16,-978.51,17.24
0,18.56,-979.59,15.68
0,16.76,-978.87,15.32
0,15.92,-978.99,19.03
0,16.64,-979.95,17.24
0,16.16,-980.19,17.24
0,18.20,-978.51,16.88
0,16.40,-979.23,17.48
0,13.77,-975.40,19.39
0,16.04,-979.71,18.08
0,15.08,-978.99,15.92
0,19.63,-981.02,18.08
0,16.16,-979.23,18.79
0,16.40,-978.99,19.39
0,17.84,-980.31,16.28
0,16.28,-978.15,16.76
0,16.16,-979.11,17.72
0,15.80,-978.63,18.20
0,16.64,-978.03,18.79
0,15.44,-978.27,19.03
0,17.36,-979.47,15.80
0,17.12,-980.07,18.32
0,15.68,-979.71,18.20
0,18.56,-977.31,19.63
0,15.68,-978.99,15.20
0,17.36,-978.51,18.32
0,15.44,-978.75,18.79
0,15.08,-979.47,17.00
0,18.20,-978.15,17.24
0,16.64,-978.75,17.24
0,19.27,-979.83,18.32
0,15.68,-979.11,17.84
0,17.96,-979.59,18.91
0,17.48,-979.35,16.76
0,16.28,-979.11,17.96
0,17.36,-979.59,18.08
0,16.16,-978.39,16.76
0,16.52,-978.39,17.84
0,15.68,-980.19,17.24
0,16.76,-979.59,18.20
0,18.79,-977.19,18.91
0,16.52,-978.75,16.76
0,18.91,-978.99,19.51
0,15.92,-978.75,18.32
0,17.96,-985.21,15.92
0,15.44,-979.23,13.29
0,15.80,-978.63,20.35
0,16.40,-979.71,20.95
0,17.36,-979.47,16.04
0,18.79,-977.91,19.63
0,15.44,-978.75,15.68
0,16.16,-979.47,18.67
0,17.00,-978.99,17.00
0,14.37,-979.59,20.71
0,17.00,-980.55,17.00
0,15.56,-978.03,18.44
0,16.64,-979.35,19.39
0,17.12,-978.87,17.60
0,16.88,-979.35,17.36
0,17.72,-979.59,17.24
0,15.08,-978.87,18.44
0,16.28,-978.99,17.72
0,14.84,-977.31,17.72
0,16.64,-978.39,19.63
0,16.88,-981.14,18.32
0,17.48,-976.59,17.96
0,17.48,-978.75,19.51
0,15.08,-978.99,17.36
0,18.20,-978.51,17.84
0,16.64,-979.23,17.48
0,16.88,-978.75,19.03
0,16.64,-980.31,17.72
0,15.68,-979.35,18.08
0,16.64,-978.75,17.84
0,15.32,-979.35,18.08
0,15.80,-979.47,19.15
0,15.32,-979.47,17.72
0,15.92,-980.07,16.88
0,16.28,-980.07,18.44
0,16.16,-978.75,17.60
0,17.12,-979.23,16.88
0,16.04,-978.75,17.84
0,16.28,-978.63,18.20
0,16.64,-978.27,18.32
0,16.64,-978.75,18.20
0,16.28,-978.63,20.11
0,17.48,-978.87,17.36
0,16.40,-978.51,17.60
0,16.52,-979.11,18.56
0,16.04,-978.03,19.03
0,17.00,-978.27,17.48
0,14.01,-976.71,17.00
0,17.36,-978.75,17.60
0,15.08,-979.47,18.08
0,18.32,-978.75,16.16
0,17.24,-977.79,17.84
0,15.20,-978.63,17.60
0,16.76,-978.87,18.32
0,15.80,-978.51,15.56
0,17.72,-978.99,17.72
0,17.36,-979.23,16.16
0,15.92,-978.39,19.15
0,15.56,-978.75,19.03
0,16.16,-979.23,17.72
0,17.00,-978.75,17.24
0,17.48,-979.47,18.44
0,14.96,-978.63,19.15
0,16.88,-976.95,18.79
0,16.76,-978.27,16.76
0,17.36,-979.47,17.48
0,15.56,-978.27,17.24
0,16.52,-978.51,19.03
0,16.04,-978.87,17.48
0,15.80,-979.11,16.88
0,16.64,-978.75,17.24
0,16.52,-978.87,17.12
0,18.08,-978.03,18.67
0,16.40,-979.59,17.24
0,16.76,-978.87,18.32
0,17.60,-979.71,18.32
0,16.76,-978.51,16.64
0,17.60,-980.43,17.24
0,15.56,-978.27,18.08
0,16.16,-978.63,19.15
0,16.64,-979.35,17.72
0,16.40,-977.91,17.12
0,16.88,-978.15,18.08
0,16.04,-979.95,17.60
0,14.96,-979.35,17.60
0,16.64,-978.63,17.84
0,16.40,-978.87,17.12
0,16.40,-980.43,16.88
0,15.92,-978.27,18.44
0,16.28,-978.87,18.67
0,15.20,-979.83,18.08
0,16.04,-979.59,17.00
0,15.92,-978.99,17.36
0,16.40,-980.66,19.87
0,16.16,-978.15,18.20
0,16.28,-978.99,17.48
0,16.76,-978.99,17.24
0,17.48,-979.23,18.67
0,16.64,-979.59,17.48
0,16.64,-979.59,18.08
0,16.76,-978.39,17.48
0,16.64,-979.23,17.96
0,17.12,-978.99,18.44
0,16.52,-978.75,18.67
0,16.40,-978.87,19.03
0,16.28,-977.67,20.35
0,18.20,-979.11,15.32
0,17.36,-977.43,15.68
0,18.79,-978.39,19.51
0,14.96,-982.46,17.48
0,15.92,-980.90,20.23
0,15.68,-978.75,17.84
0,18.79,-978.27,16.76
0,17.96,-978.63,19.03
0,16.52,-982.46,22.86
0,17.84,-977.19,22.27
0,15.68,-978.51,15.08
0,17.96,-979.23,17.72
0,15.92,-978.15,18.08
0,16.76,-978.75,19.15
0,18.44,-978.99,17.84
0,17.72,-977.31,18.08
0,16.28,-978.39,18.20
0,15.68,-977.79,19.39
0,15.80,-978.03,15.32
0,16.64,-979.11,16.40
0,17.48,-976.95,17.72
0,15.08,-979.35,16.28
0,18.44,-976.24,13.89
0,19.03,-979.23,16.52
0,18.32,-976.24,16.88
0,14.25,-980.78,22.86
0,14.13,-979.11,20.23
0,17.36,-979.95,15.56
0,16.52,-976.24,15.68
0,18.44,-979.71,16.28
0,17.60,-951.70,17.24
0,15.08,-977.67,16.04
0,19.03,-977.91,13.41
0,17.12,-979.59,11.37
0,15.80,-975.88,19.75
0,18.32,-978.03,17.60
0,14.25,-979.11,14.72
0,15.68,-978.87,18.20
0,15.80,-980.07,19.39
0,17.84,-977.67,16.04
0,17.72,-978.75,15.80
0,17.96,-981.14,19.75
0,18.91,-978.03,18.79
0,19.51,-978.51,15.08
0,17.72,-978.51,15.08
0,18.67,-979.83,19.51
0,17.96,-978.75,18.44
0,19.03,-978.39,15.92
0,16.40,-978.63,15.92
0,15.68,-979.35,18.91
0,15.80,-979.35,18.20
0,17.60,-979.47,16.88
0,16.52,-978.27,17.96
0,16.64,-977.91,17.72
0,15.80,-979.23,18.08
0,16.16,-978.99,17.84
0,16.04,-977.07,17.72
0,15.44,-978.99,18.20
0,15.08,-978.03,17.96
0,17.36,-979.23,17.60
0,14.96,-978.87,18.91
0,16.88,-977.67,18.56
0,15.92,-978.03,19.63
0,15.56,-980.19,20.11
0,16.76,-979.59,16.16
0,16.88,-978.87,18.20
0,17.72,-978.87,17.36
0,16.64,-980.43,16.64
0,15.20,-979.11,18.91
0,15.92,-978.87,18.79
0,16.40,-978.63,18.32
0,16.52,-979.35,16.64
0,16.28,-978.63,17.36
0,15.92,-978.99,19.27
0,16.40,-978.75,18.91
0,16.64,-978.87,17.24
0,16.76,-979.23,17.60
0,15.80,-979.47,17.96
0,16.16,-979.11,18.56
0,17.12,-978.99,17.24
0,14.72,-979.35,17.96
0,17.36,-979.11,17.60
0,15.68,-979.83,15.92
0,17.60,-978.27,17.60
0,16.16,-978.03,20.35
0,13.89,-972.52,14.01
0,22.86,-976.36,20.71
0,15.56,-979.71,17.36
0,17.60,-980.31,20.59
0,15.44,-945.23,-1.68
0,47.05,-952.05,-4.19
0,45.01,-966.90,13.05
0,34.84,-969.05,37.59
0,4.91,-973.60,16.88
0,17.84,-973.00,14.96
0,26.22,-984.85,31.72
0,14.25,-981.50,35.91
0,25.26,-974.56,13.65
0,23.46,-976.95,2.39
0,15.80,-985.45,34.48
0,16.04,-979.23,21.79
0,23.34,-981.26,7.42
0,17.48,-978.27,15.20
0,17.24,-977.67,29.57
0,17.12,-980.07,19.75
0,20.47,-978.99,12.21
0,17.00,-977.79,21.07
0,11.85,-978.87,26.70
0,19.03,-979.23,18.67
0,17.60,-978.27,15.08
0,17.12,-978.99,22.74
0,17.36,-979.11,22.86
0,16.88,-978.99,19.63
0,19.39,-979.35,15.92
0,15.56,-979.11,22.15
0,17.00,-978.87,23.10
0,18.20,-979.71,18.79
0,18.44,-978.75,17.36
0,17.12,-979.83,22.15
0,16.16,-978.51,20.71
0,18.20,-979.71,19.27
0,18.08,-977.55,18.79
0,17.48,-979.23,20.59
0,16.52,-978.99,21.55
0,17.72,-979.47,18.91
0,19.15,-978.87,18.56
0,16.40,-979.11,21.19
0,17.36,-978.51,21.07
0,17.60,-979.83,19.15
0,18.32,-978.87,19.75
0,17.48,-979.95,20.47
0,17.48,-979.47,21.19
0,18.67,-978.51,19.75
0,17.24,-978.39,18.79
0,17.60,-979.83,20.83
0,16.52,-978.99,19.27
0,16.28,-979.23,20.23
0,17.48,-977.31,20.47
0,18.56,-978.51,18.91
0,16.64,-978.27,20.83
0,15.80,-979.59,22.51
0,14.60,-979.83,18.79
0,19.39,-978.63,13.05
0,12.93,-978.03,28.37
0,23.46,-980.43,15.68
0,21.31,-968.57,13.77
0,12.81,-982.58,1.92
0,16.64,-961.99,2.51
0,16.52,-977.19,-8.98
0,21.31,-973.36,-6.22
0,17.12,-977.91,-7.06
0,17.72,-979.11,4.07
0,11.97,-979.47,-7.54
0,19.63,-977.43,-4.67
0,23.82,-984.62,-3.83
0,15.20,-978.87,-0.96
0,15.44,-979.95,2.87
0,10.06,-973.84,2.04
0,14.72,-970.13,1.20
0,24.78,-979.95,-3.35
0,11.25,-977.55,1.32
0,18.20,-979.59,7.78
0,14.60,-977.91,-3.11
0,16.76,-978.51,-1.68
0,19.03,-979.23,-2.04
0,14.48,-978.51,2.75
0,15.80,-978.63,2.99
0,16.28,-978.39,0.00
0,15.92,-977.67,2.39
0,15.68,-978.15,2.27
0,14.01,-973.72,5.99
0,17.24,-978.27,5.87
0,15.56,-978.27,4.55
0,16.76,-978.15,3.95
0,15.44,-978.51,4.07
0,15.92,-978.63,5.15
0,18.08,-979.47,4.19
0,15.32,-978.39,5.03
0,16.16,-978.51,4.67
0,15.68,-978.39,4.55
0,16.40,-979.35,4.55
0,16.40,-978.87,4.55
0,16.40,-979.11,4.67
0,16.40,-978.03,5.51
0,16.16,-978.75,5.63
0,17.12,-978.87,4.79
0,15.32,-978.39,5.99
0,16.40,-979.47,6.94
0,16.28,-979.11,5.63
0,16.04,-978.99,5.75
0,16.64,-978.03,4.79
0,16.40,-978.75,6.11
0,15.80,-977.91,5.87
0,17.12,-979.11,5.63
0,17.48,-977.43,7.66
0,15.92,-978.51,8.26
0,11.61,-978.51,4.79
0,14.96,-978.15,3.47
0,21.31,-980.90,5.03
0,12.09,-972.64,7.66
0,21.31,-982.82,10.06
0,14.13,-980.07,11.01
0,16.04,-979.71,9.22
0,19.15,-978.99,5.87
0,16.40,-980.19,9.22
0,14.84,-977.55,13.05
0,16.16,-976.00,13.65
0,16.76,-978.51,9.10
0,21.31,-978.63,11.25
0,15.92,-977.67,7.42
0,13.89,-978.39,12.69
0,15.32,-979.11,11.85
0,18.32,-978.63,7.06
0,16.40,-979.71,10.65
0,17.12,-980.66,9.82
0,15.32,-950.50,9.34
0,14.72,-980.07,9.10
0,17.60,-978.87,8.86
0,14.84,-976.36,8.86
0,15.80,-978.27,13.29
0,16.40,-978.39,9.10
0,19.03,-977.79,10.18
0,15.80,-977.55,9.82
0,17.48,-979.95,8.62
0,15.08,-976.95,12.33
0,19.15,-975.16,8.98
0,18.67,-980.19,9.46
0,15.32,-976.36,14.25
0,17.96,-976.00,7.90
0,15.80,-978.63,5.27
0,15.08,-978.27,10.18
0,15.08,-978.27,10.89
0,15.32,-977.07,12.33
0,17.00,-977.31,12.09
0,24.06,-979.23,11.01
0,15.20,-978.75,9.82
0,18.08,-977.31,11.13
0,16.16,-980.90,6.46
0,16.04,-980.43,10.30
0,17.84,-977.55,8.14
0,16.16,-977.91,9.94
0,17.36,-978.51,11.97
0,13.89,-977.31,15.08
0,15.44,-978.99,10.89
0,18.91,-979.59,6.22
0,15.32,-978.75,8.50
0,15.20,-977.79,16.76
0,17.12,-979.47,10.89
0,18.91,-982.34,1.68
0,14.60,-982.46,13.05
0,18.08,-977.31,17.12
0,17.12,-978.03,5.27
0,16.88,-977.55,9.82
0,13.41,-978.51,16.16
0,14.96,-975.64,15.08
0,14.96,-977.43,2.39
0,17.00,-980.31,10.30
0,17.24,-978.27,13.65
0,14.01,-978.51,8.26
0,18.44,-978.87,6.58
0,17.84,-980.07,8.14
0,12.57,-976.36,13.65
0,17.24,-978.03,10.41
0,15.20,-976.95,6.58
0,16.52,-978.27,9.82
0,16.64,-979.47,10.06
0,16.52,-979.35,10.77
0,16.64,-978.99,9.58
0,15.44,-978.15,9.46
0,16.64,-979.11,10.77
0,16.52,-978.51,10.30
0,17.96,-979.59,8.02
0,15.80,-979.35,9.10
0,15.92,-978.87,9.82
0,16.16,-978.15,8.74
0,16.88,-978.39,9.70
0,16.40,-978.51,9.22
0,16.40,-978.27,10.53
0,19.87,-979.71,12.09
0,13.65,-978.99,7.90
0,20.23,-978.87,9.34
0,14.84,-980.19,9.70
0,16.52,-978.15,8.86
0,16.04,-978.75,10.18
0,15.32,-978.99,10.77
0,16.40,-978.99,10.18
0,16.88,-978.63,8.50
0,16.16,-978.99,10.65
0,16.04,-978.15,9.70
0,16.52,-979.47,10.06
0,15.80,-978.63,10.30
0,16.16,-978.03,9.34
0,15.20,-977.91,9.82
0,16.76,-1010.95,9.46
0,13.41,-979.71,4.67
0,15.92,-978.99,9.10
0,15.08,-979.11,11.61
0,15.92,-977.55,9.58
0,16.40,-978.87,9.46
0,17.00,-977.43,9.94
0,16.28,-978.39,9.46
0,14.96,-978.87,10.77
0,16.40,-977.43,9.10
0,16.52,-978.75,8.38
0,16.88,-977.67,12.21
0,15.32,-977.79,11.61
0,16.64,-979.59,7.78
0,18.32,-978.99,9.82
0,15.08,-978.99,9.46
0,16.04,-978.75,12.45
0,18.79,-978.27,6.11
0,16.64,-979.23,9.10
0,15.56,-978.99,11.37
0,17.00,-978.15,10.06
0,16.04,-978.15,9.58
0,15.80,-977.67,8.38
0,14.84,-977.79,11.13
0,15.08,-978.99,8.50
0,16.76,-978.75,8.02
0,16.52,-978.75,10.65
0,16.52,-979.71,9.10
0,16.16,-978.51,8.98
0,16.88,-979.95,11.01
0,14.72,-977.91,9.82
0,16.40,-977.55,11.13
0,17.36,-977.67,9.34
0,17.36,-979.23,7.18
0,16.40,-979.23,10.41
0,16.76,-978.51,9.94
0,15.92,-978.03,9.58
0,17.72,-978.15,9.10
0,16.40,-978.39,10.77
0,18.67,-979.83,10.30
0,15.68,-979.11,12.45
0,18.67,-977.67,8.02
0,14.96,-978.63,10.65
0,17.36,-978.99,9.94
0,16.52,-978.99,11.61
0,18.32,-979.35,6.22
0,14.84,-978.51,10.53
0,15.56,-979.23,9.82
0,15.80,-979.11,8.98
0,16.52,-978.15,11.25
0,15.20,-979.95,9.70
0,14.60,-978.03,8.50
0,16.76,-978.99,9.82
0,15.20,-978.39,13.89
0,16.64,-977.31,7.06
0,18.67,-978.51,11.25
0,18.20,-977.67,6.94
0,15.92,-978.03,12.45
0,16.40,-976.48,10.30
0,16.16,-977.31,8.26
0,16.64,-976.83,8.74
0,13.05,-976.83,8.86
0,19.15,-978.39,8.74
0,17.00,-978.39,5.39
0,17.72,-978.15,12.69
0,16.28,-978.15,9.70
0,14.37,-978.39,9.22
0,16.52,-977.91,8.14
0,17.00,-978.99,8.62
0,15.92,-978.15,12.21
0,15.08,-978.39,9.22
0,18.79,-979.11,10.30
0,15.56,-978.87,7.18
0,16.28,-979.83,11.61
0,14.48,-978.63,12.45
0,17.24,-978.15,5.51
0,16.88,-980.19,7.18
0,16.40,-977.79,14.84
0,16.64,-978.99,10.41
0,17.84,-977.55,8.62
0,17.00,-978.87,8.02
0,14.72,-978.99,10.89
0,16.04,-978.39,10.77
0,17.84,-978.27,9.82
0,16.88,-978.87,8.98
0,16.52,-978.39,10.06
0,15.08,-978.15,10.77
0,17.72,-977.19,6.58
0,18.32,-964.26,5.15
0,19.63,-975.16,8.26
0,17.00,-979.11,6.58
0,15.80,-977.79,9.34
0,15.08,-979.59,10.06
0,16.40,-977.67,9.34
0,16.88,-978.15,8.14
0,17.00,-978.39,8.62
0,15.68,-979.47,10.89
0,16.04,-978.39,9.10
0,16.28,-979.11,9.34
0,15.56,-977.91,9.34
0,17.12,-979.23,9.70
0,16.88,-979.11,9.10
0,17.36,-978.03,9.82
0,15.32,-976.48,12.21
0,18.79,-976.83,9.94
0,16.16,-977.91,9.46
0,15.56,-978.75,8.62
0,18.32,-977.67,10.06
0,14.48,-977.91,9.70
0,16.40,-978.15,9.94
0,16.40,-978.99,8.50
0,16.16,-977.79,10.30
0,17.24,-979.23,10.30
0,16.40,-978.51,9.70
0,18.08,-978.87,8.86
0,14.96,-979.35,10.06
0,16.64,-978.03,9.58
0,16.88,-978.75,9.58
0,17.72,-978.99,9.82
0,16.76,-978.39,9.22
0,15.20,-978.87,10.41
0,16.76,-978.99,9.58
0,17.36,-979.35,9.70
0,16.04,-977.43,9.58
0,20.83,-977.19,12.33
0,16.76,-977.55,8.62
0,15.68,-976.59,15.80
0,17.72,-979.35,9.58
0,16.64,-978.39,8.62
0,16.64,-979.83,9.46
0,15.80,-978.87,10.89
0,16.28,-979.47,9.46
0,16.04,-978.27,8.74
0,14.96,-978.87,11.25
0,16.64,-977.79,10.30
0,15.80,-977.79,10.06
0,16.40,-977.43,9.10
0,17.12,-980.90,14.37
0,16.28,-979.71,11.25
0,16.28,-978.63,7.06
0,16.04,-978.63,8.98
0,15.68,-977.55,10.65
0,20.23,-977.79,11.37
0,14.48,-980.90,9.46
0,18.32,-978.51,11.37
0,15.56,-979.59,10.18
0,15.44,-979.59,8.50
0,16.40,-978.39,9.70
0,16.04,-977.91,10.65
0,17.12,-979.11,10.18
0,16.64,-978.39,8.74
0,15.56,-978.99,9.82
0,15.68,-979.35,11.01
0,18.44,-978.99,10.89
0,16.04,-979.23,8.74
0,16.04,-979.35,10.18
0,17.00,-978.99,12.21
0,17.60,-976.71,8.74
0,18.91,-975.28,8.62
0,17.60,-978.63,9.34
0,15.68,-978.87,11.49
0,16.76,-979.59,10.41
0,15.92,-978.39,9.34
0,17.36,-978.75,10.53
0,16.16,-978.99,11.13
0,17.84,-977.91,10.89
0,15.44,-978.75,8.98
0,15.44,-978.75,11.01
0,16.64,-978.03,9.94
0,16.16,-979.11,8.50
0,17.00,-978.15,9.70
0,15.80,-978.51,8.98
0,17.00,-978.51,8.98
0,16.52,-978.99,7.54
0,12.81,-979.47,8.74
0,15.68,-1008.32,8.98
0,16.40,-979.11,8.02
0,16.88,-979.23,9.82
0,15.92,-978.99,9.58
0,15.56,-978.51,10.41
0,17.60,-978.03,8.38
0,13.77,-978.15,8.26
0,15.68,-976.48,9.82
0,16.64,-978.75,9.58
0,18.08,-978.87,8.02
0,15.44,-978.03,9.94
0,17.12,-978.03,12.69
0,16.16,-979.23,10.77
0,15.92,-977.55,9.82
0,19.15,-982.10,7.54
0,14.60,-977.55,8.86
0,16.28,-978.63,11.13
0,16.64,-977.79,9.82
0,18.32,-978.75,6.46
0,17.60,-978.15,8.26
0,16.88,-976.48,11.73
0,15.56,-978.87,9.34
0,16.04,-979.59,8.62
0,16.64,-978.87,10.41
0,17.84,-979.11,8.98
0,17.60,-976.36,7.78
0,17.96,-978.15,8.38
0,16.04,-978.87,12.93
0,13.89,-978.99,8.14
0,16.88,-978.63,10.41
0,16.76,-978.51,11.85
0,17.12,-978.99,6.46
0,19.03,-980.78,8.50
0,14.25,-978.39,8.38
0,16.04,-979.59,12.45
0,15.92,-979.23,9.70
0,16.16,-976.83,9.82
0,15.92,-977.43,11.49
0,16.64,-979.23,9.22
0,15.08,-979.23,10.89
0,17.00,-978.51,10.53
0,16.88,-979.23,8.26
0,15.92,-978.87,11.13
0,16.88,-978.87,9.94
0,16.76,-978.03,9.58
0,16.64,-977.55,8.74
0,16.40,-979.71,8.62
0,17.00,-977.55,11.97
0,17.12,-979.83,9.94
0,16.40,-978.63,8.26
0,17.24,-979.11,8.38
0,15.80,-978.63,9.94
0,14.01,-978.39,10.77
0,16.16,-978.15,9.46
0,16.40,-979.11,8.98
0,16.28,-977.31,10.18
0,15.56,-978.03,10.65
0,16.52,-978.51,9.70
0,16.64,-978.03,9.46
0,16.76,-978.15,9.94
0,15.56,-978.63,10.65
0,17.00,-978.75,10.18
0,16.88,-978.27,8.38
0,16.76,-977.55,10.89
0,13.53,-975.16,14.84
0,17.84,-977.55,9.82
0,17.60,-981.02,8.62
0,17.24,-978.03,10.06
0,17.36,-978.15,11.13
0,15.80,-979.11,9.22
0,17.84,-978.63,8.62
0,16.76,-978.99,9.82
0,14.13,-978.75,11.73
0,19.51,-978.99,5.99
0,15.32,-972.05,12.21
0,15.32,-975.76,14.48
0,13.17,-979.23,10.06
0,15.08,-979.11,8.14
0,16.64,-978.27,5.87
0,17.72,-979.11,8.26
0,14.96,-980.07,12.69
0,16.04,-977.79,11.25
0,16.16,-977.43,11.25
0,16.16,-978.87,8.50
0,16.52,-978.27,9.58
0,16.64,-979.35,9.58
0,16.04,-979.71,8.62
0,17.00,-978.27,8.86
0,17.24,-976.71,12.09
0,17.60,-977.55,13.41
0,14.60,-976.24,10.53
0,18.67,-978.75,10.41
0,15.20,-979.23,7.54
0,17.48,-980.31,11.13
0,15.32,-979.83,8.38
0,16.28,-978.99,10.06
0,16.04,-976.71,9.34
0,14.84,-973.36,9.46
0,17.00,-974.20,11.49
0,17.48,-978.03,7.90
0,16.76,-978.27,8.02
0,16.04,-979.35,10.30
0,16.88,-978.39,9.34
0,18.67,-978.99,4.91
0,15.44,-979.23,11.25
0,16.28,-977.19,11.01
0,16.04,-976.71,10.77
0,16.88,-978.39,9.34
0,16.52,-977.79,7.66
0,17.60,-980.55,9.10
0,16.28,-979.59,7.78
0,16.40,-978.15,7.90
0,15.92,-979.71,8.50
0,16.04,-978.51,7.90
0,15.44,-978.75,9.34
0,16.04,-977.31,9.58
0,16.04,-978.63,7.66
0,16.16,-978.27,10.53
0,18.44,-977.79,8.50
0,15.92,-977.79,11.37
0,15.68,-979.47,8.86
0,15.80,-975.76,9.70
0,14.01,-978.75,9.70
0,17.48,-977.91,3.71
0,14.01,-978.87,9.70
0,18.20,-978.87,13.65
0,11.13,-978.51,7.90
0,18.08,-977.79,8.38
0,12.93,-978.87,8.86
0,21.19,-981.38,9.46
0,13.77,-981.02,7.42
0,15.56,-978.75,5.87
0,14.48,-980.19,7.90
0,14.84,-978.27,10.41
0,17.36,-977.31,9.70
0,15.32,-976.83,8.74
0,16.16,-978.39,9.22
0,18.32,-977.55,5.63
0,8.50,-972.52,3.47
0,21.07,-980.78,11.49
0,16.28,-978.87,5.03
0,19.99,-977.43,7.78
0,18.44,-978.15,9.82
0,13.53,-979.83,14.48
0,17.96,-978.63,8.86
0,15.80,-976.83,6.58
0,17.84,-980.78,9.46
0,16.64,-977.43,11.25
0,16.64,-978.87,8.38
0,16.16,-976.71,7.42
0,17.48,-977.31,8.38
0,17.00,-977.19,14.01
0,15.08,-978.15,7.78
0,19.15,-982.58,9.82
0,12.57,-979.59,4.31
0,17.60,-979.47,10.53
0,15.08,-978.75,8.98
0,15.80,-978.63,10.18
0,19.39,-977.79,10.06
0,15.32,-982.82,15.56
0,14.84,-978.87,8.14
0,18.67,-976.71,10.30
0,14.60,-979.35,9.82
0,20.23,-979.11,10.30
0,16.64,-980.78,8.74
0,15.80,-982.34,11.61
0,24.06,-979.59,11.37
0,16.28,-978.27,7.42
0,19.39,-976.71,11.61
0,14.84,-978.87,10.89
0,17.60,-978.63,10.65
0,19.39,-977.43,10.65
0,17.00,-977.79,11.25
0,17.00,-978.27,14.13
0,-1.56,-926.80,13.29
0,56.86,-1005.33,51.12
0,21.07,-987.37,-11.97
0,4.19,-974.56,-12.81
0,15.56,-983.78,7.42
0,23.94,-987.97,16.88
0,13.05,-979.95,10.06
0,17.24,-976.48,11.37
0,14.84,-977.67,10.89
0,11.85,-978.27,12.81
0,24.66,-967.26,16.40
0,19.03,-982.58,7.78
0,18.79,-979.59,15.56
0,18.56,-977.07,16.16
0,14.25,-977.31,12.33
0,19.75,-979.59,9.46
0,17.96,-979.83,11.49
0,16.04,-978.99,15.68
0,19.27,-977.79,10.41
0,18.32,-977.91,9.34
0,17.24,-979.95,13.29
0,17.00,-978.51,13.29
0,16.76,-978.15,12.93
0,18.20,-978.27,10.18
0,18.32,-978.75,12.69
0,15.92,-978.27,14.01
0,17.84,-979.83,10.89
0,17.72,-978.99,10.18
0,16.76,-979.23,13.05
0,17.24,-978.39,12.57
0,17.36,-978.75,11.97
0,16.88,-978.75,10.77
0,18.08,-979.11,11.73
0,17.24,-978.39,12.81
0,17.72,-978.75,12.21
0,17.36,-978.51,10.41
0,17.72,-978.39,12.93
0,17.12,-978.39,12.45
0,17.48,-977.91,11.61
0,17.72,-978.87,12.21
0,18.08,-979.59,12.33
0,17.96,-978.75,12.57
0,17.24,-979.11,12.81
0,17.24,-978.87,11.97
0,17.72,-978.87,12.45
0,17.00,-978.63,13.29
0,18.08,-979.35,12.81
0,17.84,-978.51,11.85
0,18.08,-978.75,12.21
0,16.64,-978.87,11.85
0,17.12,-978.63,13.05
0,18.08,-978.15,11.97
0,15.32,-978.87,11.73
0,-10.77,-984.85,-24.06
0,29.45,-979.83,22.03
0,4.79,-973.00,13.17
0,5.51,-973.60,-6.58
0,23.10,-974.56,11.13
0,23.58,-975.88,4.55
0,12.09,-978.87,7.18
0,21.19,-977.91,19.63
0,16.04,-976.00,5.87
0,15.20,-977.79,11.97
0,16.04,-980.19,17.96
0,16.28,-977.43,8.86
0,20.59,-978.39,11.13
0,16.88,-978.15,11.85
0,20.35,-979.71,12.93
0,15.08,-977.79,13.05
0,24.42,-1111.87,22.86
0,5.63,-975.76,41.42
0,9.94,-997.54,12.21
0,8.86,-990.12,6.34
0,12.57,-980.43,10.06
0,20.83,-973.72,15.56
0,12.33,-977.19,12.21
0,19.27,-980.07,16.64
0,17.48,-979.23,8.02
0,15.68,-977.67,8.86
0,18.91,-978.63,10.18
0,13.05,-978.75,8.86
0,12.57,-978.27,15.68
0,21.07,-976.95,13.05
0,18.32,-979.71,4.91
0,16.16,-977.43,13.53
0,14.72,-979.35,17.96
0,16.52,-978.39,10.18
0,19.39,-978.03,9.46
0,18.44,-980.19,10.65
0,16.88,-980.43,14.60
0,17.36,-977.55,11.37
0,17.96,-979.23,9.34
0,16.40,-978.63,12.21
0,17.00,-978.87,15.32
0,17.00,-978.63,11.49
0,18.91,-978.15,10.06
0,17.36,-978.87,13.17
0,16.40,-979.11,14.01
0,17.84,-978.75,11.61
0,17.36,-978.99,10.18
0,17.24,-978.87,11.49
0,16.88,-978.39,13.89
0,16.88,-978.99,12.09
0,17.84,-978.51,11.13
0,16.88,-978.75,11.73
0,17.00,-979.83,13.41
0,16.76,-978.15,12.21
0,17.72,-981.50,15.92
0,21.43,-983.42,8.38
0,11.49,-976.83,14.13
0,15.56,-978.51,14.37
0,16.52,-977.31,9.70
0,17.60,-978.51,10.18
0,15.08,-990.72,21.43
0,15.08,-977.79,4.07
0,17.24,-979.47,6.94
0,10.53,-979.59,-10.06
0,18.91,-979.59,-2.04
0,19.15,-974.44,6.34
0,11.73,-975.40,4.07
0,18.56,-982.34,10.53
0,15.32,-978.39,10.41
0,17.84,-980.31,11.73
0,16.76,-979.35,11.37
0,16.40,-983.30,12.81
0,16.52,-980.78,11.49
0,17.00,-979.59,9.70
0,17.48,-979.23,10.77
0,15.80,-978.39,10.65
0,15.56,-976.36,11.37
0,14.01,-976.36,14.01
0,18.56,-978.51,10.18
0,17.96,-978.75,9.94
0,14.96,-976.48,12.33
0,17.96,-977.67,11.01
0,14.72,-978.27,10.30
0,19.27,-978.99,11.85
0,16.64,-978.51,9.46
0,17.12,-980.55,14.25
0,14.48,-978.75,11.97
0,17.24,-979.71,10.53
0,15.68,-978.63,11.37
0,16.64,-977.91,13.17
0,16.16,-978.87,11.61
0,15.56,-978.99,10.65
0,17.12,-978.87,10.89
0,15.68,-978.51,12.81
0,15.56,-978.03,10.89
0,18.08,-978.87,12.21
0,16.64,-978.63,11.01
0,17.48,-978.51,11.73
0,16.16,-978.63,11.97
0,16.64,-978.63,11.01
0,17.24,-979.47,11.01
0,17.36,-979.11,11.61
0,17.36,-979.11,11.73
0,15.80,-978.87,11.13
0,16.40,-980.43,11.97
0,16.76,-979.35,9.34
0,15.80,-978.51,11.49
0,16.76,-978.27,12.09
0,17.36,-978.75,10.41
0,17.84,-978.15,12.81
0,16.16,-978.03,11.37
0,17.24,-978.51,11.25
0,16.64,-978.99,11.73
0,18.56,-978.39,11.73
0,17.48,-978.15,11.61
0,16.28,-978.63,10.77
0,16.16,-977.31,11.61
0,16.16,-979.11,12.57
0,16.40,-978.63,11.13
0,17.60,-980.07,11.01
0,16.52,-978.51,12.81
0,17.96,-978.03,10.89
0,15.80,-979.47,10.65
0,16.52,-979.71,12.33
0,15.20,-978.51,12.21
0,16.16,-978.63,11.01
0,17.36,-978.63,11.37
0,16.64,-978.39,11.13
0,16.16,-979.11,12.69
0,16.52,-978.75,11.85
0,17.12,-978.87,11.61
0,18.79,-978.63,11.49
0,17.12,-979.59,11.49
0,15.56,-977.91,12.93
0,17.24,-978.03,11.25
0,17.00,-978.15,10.18
0,17.96,-980.19,10.18
0,14.60,-978.75,10.53
0,16.28,-978.15,11.25
0,18.91,-977.91,11.61
0,16.64,-978.51,9.34
0,16.28,-978.39,11.13
0,15.44,-977.55,11.37
0,16.64,-977.91,10.30
0,15.92,-978.27,10.18
0,17.36,-978.51,10.30
0,15.80,-978.27,10.65
0,16.88,-978.99,10.77
0,16.76,-979.59,10.77
0,16.76,-978.15,10.89
0,16.16,-978.75,11.85
0,16.76,-978.51,11.13
0,17.00,-978.63,10.30
0,16.52,-978.87,11.85
0,18.32,-978.27,12.93
0,17.24,-978.27,8.26
0,15.56,-978.15,13.41
0,16.64,-978.51,11.97
0,18.32,-977.79,11.01
0,16.04,-978.51,10.41
0,17.72,-978.75,11.73
0,15.68,-977.31,11.61
0,17.48,-979.59,11.25
0,17.36,-978.39,10.41
0,17.48,-978.15,11.73
0,17.48,-978.39,11.25
0,16.16,-978.27,10.18
0,17.60,-977.43,11.97
0,15.92,-978.51,11.13
0,18.20,-977.91,10.53
0,16.88,-978.63,11.61
0,16.28,-978.75,12.45
0,17.48,-978.99,10.89
0,16.04,-978.99,11.61
0,18.67,-979.11,11.97
0,17.36,-978.87,10.30
0,18.44,-978.75,11.49
0,14.13,-975.16,12.81
0,16.64,-978.15,12.09
0,16.28,-977.31,10.89
0,26.22,-962.11,19.75
0,21.31,-987.13,5.63
0,16.76,-978.63,13.29
0,19.87,-981.38,11.37
0,16.28,-980.07,5.99
0,15.80,-976.59,16.16
0,19.39,-978.99,12.33
0,11.85,-979.47,17.36
0,18.32,-977.55,-0.36
0,17.00,-976.59,18.44
0,22.74,-982.10,20.47
0,14.84,-978.39,-1.20
0,20.83,-976.59,12.33
0,16.52,-980.19,11.85
0,11.13,-977.55,12.09
0,16.04,-979.35,12.45
0,15.56,-979.47,5.39
0,16.16,-979.83,9.22
0,16.76,-979.71,11.61
0,15.44,-978.27,7.54
0,15.08,-978.03,8.98
0,14.37,-978.27,8.98
0,17.72,-979.95,9.58
0,15.32,-978.63,10.41
0,17.12,-978.63,8.74
0,17.00,-978.87,9.10
0,14.48,-978.75,10.53
0,16.88,-978.63,10.77
0,15.68,-978.51,10.18
0,17.00,-978.87,9.94
0,16.16,-978.27,9.82
0,16.04,-978.03,10.53
0,15.68,-978.87,9.10
0,13.89,-979.59,8.26
0,17.96,-978.63,12.33
0,12.45,-977.31,12.93
0,18.79,-980.07,9.10
0,14.13,-978.03,9.10
0,16.88,-978.39,11.85
0,17.96,-979.11,9.22
0,15.44,-979.23,7.90
0,16.16,-981.14,8.98
0,12.09,-979.59,6.22
0,18.32,-979.23,13.05
0,14.13,-979.71,9.22
0,16.76,-979.95,7.42
0,16.16,-978.99,10.89
0,13.89,-978.75,9.94
0,15.56,-979.23,9.82
0,15.32,-978.63,10.06
0,16.64,-978.75,7.18
0,15.56,-978.63,12.45
0,15.80,-978.75,8.74
0,17.00,-979.47,8.86
0,15.56,-978.51,9.58
0,15.92,-978.63,10.30
0,16.04,-977.91,10.89
0,15.80,-977.55,8.38
0,16.16,-978.75,9.10
0,16.04,-976.95,10.30
0,16.76,-979.23,10.18
0,16.28,-978.39,10.53
0,17.60,-977.19,9.58
0,15.56,-978.75,8.98
0,14.96,-978.63,10.41
0,16.16,-979.59,10.65
0,15.80,-979.23,9.46
0,16.16,-978.39,9.58
0,16.76,-979.23,10.65
0,17.00,-978.51,10.53
0,15.92,-978.63,10.89
0,15.44,-978.51,8.14
0,15.20,-979.35,9.94
0,14.84,-978.75,10.06
0,18.44,-976.95,13.53
0,15.08,-977.67,4.91
0,14.96,-978.51,11.37
0,14.37,-978.03,17.00
0,14.37,-978.99,11.73
0,18.20,-979.71,6.11
0,1.68,-1048.90,-19.51
0,-10.41,-966.06,20.95
0,20.11,-979.59,24.18
0,19.39,-978.63,4.55
0,5.03,-980.07,6.22
0,10.65,-979.35,20.11
0,14.60,-975.64,10.53
0,18.32,-977.79,5.87
0,14.48,-979.47,14.13
0,16.76,-981.38,10.41
0,14.13,-982.70,7.18
0,14.01,-976.36,10.89
0,15.56,-976.00,17.72
0,15.20,-978.63,7.66
0,18.44,-977.79,4.31
0,17.60,-981.14,8.98
0,12.81,-980.19,13.65
0,16.64,-979.35,11.73
0,16.16,-978.63,7.90
0,15.92,-978.51,8.02
0,15.56,-978.39,13.41
0,14.96,-979.35,12.33
0,11.13,-975.76,10.30
0,20.11,-978.03,11.73
0,11.97,-978.87,6.94
0,15.92,-978.51,12.09
0,17.84,-979.47,9.46
0,17.72,-977.79,7.66
0,15.68,-987.49,4.55
0,19.03,-975.52,6.94
0,12.93,-979.35,17.84
0,13.29,-979.59,1.20
0,16.52,-978.15,9.22
0,17.12,-978.63,11.97
0,14.37,-977.43,10.77
0,17.60,-980.19,9.22
0,15.44,-977.79,4.91
0,16.76,-976.83,8.02
0,14.37,-978.03,11.13
0,16.28,-978.51,9.94
0,17.72,-979.23,10.53
0,14.72,-977.67,11.13
0,16.76,-977.79,7.42
0,16.88,-978.63,13.65
0,12.33,-979.35,11.13
0,19.51,-978.63,8.26
0,13.53,-978.51,7.78
0,17.12,-980.43,10.30
0,13.89,-979.35,9.82
0,15.92,-978.87,9.70
0,16.88,-978.63,9.10
0,15.80,-979.11,8.02
0,16.28,-978.75,8.26
0,13.05,-978.99,9.34
0,17.48,-977.79,11.73
0,14.72,-978.39,7.54
0,16.76,-978.51,10.18
0,14.01,-978.87,11.01
0,12.93,-978.15,9.94
0,18.20,-977.79,8.26
0,13.65,-978.39,11.25
0,16.88,-979.11,10.41
0,15.44,-978.03,8.86
0,15.32,-977.91,8.26
0,14.25,-979.23,8.02
0,13.89,-977.55,9.70
0,16.64,-978.99,10.18
0,14.48,-978.75,8.50
0,16.16,-978.87,10.30
0,14.48,-978.03,10.77
0,16.28,-978.03,9.46
0,15.68,-978.39,8.86
0,15.68,-978.03,9.22
0,14.84,-978.63,10.89
0,15.68,-978.51,9.22
0,18.56,-977.79,10.65
0,13.89,-978.63,8.50
0,15.44,-978.63,9.94
0,14.48,-978.75,10.65
0,15.20,-978.39,9.94
0,16.04,-978.63,9.34
0,16.16,-978.39,9.82
0,14.25,-978.27,8.50
0,15.80,-979.35,10.18
0,15.68,-979.23,10.30
0,17.24,-978.39,8.62
0,15.44,-978.99,10.30
0,15.20,-978.15,10.30
0,16.28,-978.99,9.94
0,14.72,-978.87,9.70
0,15.92,-979.71,10.30
0,16.28,-979.95,8.50
0,18.79,-978.39,11.73
0,15.08,-978.03,7.90
0,16.64,-978.75,9.70
0,14.96,-978.87,9.82
0,16.04,-978.99,11.37
0,14.96,-979.11,8.86
0,15.56,-978.51,10.89
0,15.56,-979.11,8.62
0,14.96,-978.27,9.58
0,14.84,-979.23,9.94
0,15.56,-978.51,9.46
0,14.48,-978.87,9.34
0,16.04,-979.47,10.65
0,16.52,-977.55,9.34
0,16.88,-979.23,10.41
0,13.65,-977.43,9.22
0,17.84,-978.75,8.98
0,15.08,-978.27,8.74
0,15.92,-978.27,10.77
0,16.28,-977.79,7.30
0,15.56,-978.87,9.34
0,17.00,-979.23,10.18
0,13.65,-979.83,9.10
0,18.20,-978.63,8.02
0,14.96,-979.83,8.62
0,15.32,-978.51,11.49
0,16.52,-978.87,8.98
0,15.08,-978.63,8.74
0,16.40,-979.35,9.82
0,14.48,-977.79,10.30
0,16.64,-978.15,8.74
0,14.25,-978.87,10.53
0,14.96,-979.71,10.77
0,15.32,-979.11,9.70
0,14.25,-978.39,8.98
0,17.48,-978.15,8.98
0,15.08,-978.63,9.46
0,14.72,-978.99,9.70
0,16.76,-979.47,10.41
0,15.32,-978.63,9.94
0,16.52,-978.51,10.77
0,12.93,-978.15,8.62
0,15.92,-978.63,10.65
0,15.80,-978.39,10.41
0,15.80,-979.35,9.34
0,16.76,-978.51,10.30
0,15.44,-979.83,12.45
0,15.08,-978.51,9.70
0,15.20,-977.67,9.10
0,14.60,-978.39,9.58
0,14.72,-978.75,11.85
0,15.92,-978.03,9.58
0,16.16,-979.35,9.22
0,15.56,-979.35,10.30
0,16.28,-978.27,8.50
0,15.20,-978.15,9.46
0,13.77,-978.51,9.58
0,15.56,-978.39,8.50
0,13.53,-977.79,10.53
0,17.36,-978.51,8.98
0,14.60,-979.95,9.46
0,16.64,-979.11,9.70
0,15.08,-978.27,9.34
0,17.12,-980.07,8.62
0,16.04,-979.95,9.70
0,15.32,-978.87,10.53
0,14.37,-978.51,9.58
0,15.80,-979.23,10.30
0,16.76,-979.71,9.70
0,14.72,-978.75,9.22
0,15.56,-977.79,10.89
0,15.92,-978.51,9.22
0,15.68,-979.23,6.70
0,16.40,-978.63,10.65
0,13.17,-977.67,10.65
0,16.16,-979.11,8.50
0,16.76,-978.15,8.50
0,13.29,-979.23,9.70
0,14.84,-978.27,11.01
0,14.84,-978.39,9.46
0,14.60,-978.63,7.42
0,13.17,-978.15,9.94
0,14.48,-978.63,9.10
0,15.56,-977.07,8.86
0,17.60,-977.91,8.86
0,15.92,-975.16,8.02
0,15.32,-979.95,9.22
0,17.00,-979.11,8.02
0,15.80,-977.79,8.62
0,15.32,-979.23,10.89
0,15.80,-978.27,10.30
0,17.12,-978.99,8.02
0,13.89,-978.75,9.58
0,14.84,-979.11,10.41
0,15.80,-979.11,7.66
0,14.37,-979.11,8.02
0,16.88,-977.91,9.10
0,16.04,-978.15,9.46
0,16.40,-979.35,9.58
0,15.56,-977.67,9.22
0,15.32,-978.39,10.30
0,15.80,-978.87,10.65
0,15.92,-977.79,8.38
0,16.88,-978.63,8.98
0,14.72,-979.11,8.02
0,16.52,-978.75,10.53
0,14.96,-978.03,8.86
0,16.76,-978.03,9.46
0,16.52,-977.55,11.49
0,14.60,-978.87,8.50
0,16.64,-979.11,8.98
0,14.13,-978.63,7.06
0,14.96,-978.27,9.94
0,13.89,-978.27,11.13
0,16.16,-979.11,9.46
0,16.28,-978.51,8.02
0,16.16,-978.63,9.82
0,14.48,-978.27,9.70
0,15.92,-978.87,10.41
0,16.04,-979.11,7.06
0,14.60,-978.51,7.54
0,15.32,-979.35,11.85
0,16.64,-978.03,10.18
0,16.16,-979.47,8.02
0,14.13,-986.77,11.01
0,12.45,-979.47,10.89
0,19.03,-978.99,14.60
0,13.77,-978.87,10.77
0,17.96,-978.63,11.13
0,16.76,-979.95,11.61
0,16.40,-979.23,10.41
0,15.56,-976.36,11.73
0,16.52,-979.23,12.69
0,16.40,-978.63,10.65
0,17.00,-977.79,11.37
0,17.36,-979.11,10.89
0,16.64,-978.27,10.30
0,16.40,-979.59,11.49
0,15.32,-978.03,9.70
0,16.40,-978.87,12.45
0,17.00,-978.87,12.69
0,17.48,-979.35,10.65
0,16.04,-978.99,10.18
0,15.92,-977.43,11.13
0,19.27,-980.78,11.97
0,15.56,-978.63,13.05
0,17.72,-979.35,12.57
0,16.88,-980.07,10.18
0,17.00,-977.91,12.21
0,18.44,-980.55,9.10
0,14.13,-977.79,12.33
0,18.20,-979.11,11.97
0,16.28,-979.95,10.18
0,18.44,-979.11,10.41
0,16.04,-979.23,11.49
0,14.60,-979.35,10.89
0,17.48,-978.39,10.18
0,15.20,-979.59,11.85
0,15.92,-979.71,12.93
0,16.16,-978.15,11.49
0,17.12,-978.27,8.14
0,15.92,-978.63,15.56
0,16.76,-978.87,14.72
0,18.44,-979.11,9.58
0,16.28,-978.27,11.25
0,16.40,-978.63,13.17
0,15.92,-978.63,14.84
0,18.20,-977.31,9.82
0,19.99,-979.23,9.82
0,14.72,-978.15,13.17
0,16.76,-979.11,13.29
0,15.80,-979.47,10.18
0,21.67,-976.95,7.54
0,17.60,-979.35,13.41
0,13.65,-979.59,14.01
0,19.03,-978.39,8.14
0,17.84,-977.79,11.01
0,15.56,-978.63,13.89
0,16.64,-978.87,13.29
0,16.88,-978.51,11.25
0,17.12,-977.67,9.82
0,16.16,-978.27,11.25
0,16.16,-979.35,12.21
0,16.64,-978.63,11.25
0,16.28,-979.71,10.41
0,16.76,-978.27,11.61
0,16.64,-978.75,12.09
0,17.00,-978.27,10.18
0,16.40,-978.15,9.58
0,16.52,-978.15,12.69
0,17.36,-978.63,11.37
0,15.20,-980.31,10.53
0,18.08,-980.07,10.77
0,17.96,-978.63,11.13
0,17.96,-978.75,11.13
0,17.36,-978.63,7.42
0,17.12,-977.19,15.44
0,16.28,-978.75,14.01
0,18.44,-977.31,9.82
0,18.08,-978.27,11.73
0,15.92,-977.67,14.84
0,16.52,-982.34,15.08
0,15.92,-979.11,12.93
0,20.35,-977.55,10.65
0,17.36,-976.71,12.21
0,17.84,-978.75,11.73
0,17.48,-979.11,15.32
0,15.80,-979.47,15.32
0,17.48,-978.63,12.09
0,17.60,-979.23,12.57
0,17.36,-978.75,12.57
0,18.20,-978.51,12.93
0,17.48,-979.71,12.09
0,17.24,-978.51,12.33
0,17.84,-979.95,12.57
0,17.12,-979.71,15.32
0,15.80,-978.63,14.25
0,16.28,-978.63,8.62
0,18.79,-980.31,12.33
0,15.20,-979.71,16.04
0,16.28,-974.92,19.87
0,18.32,-979.95,8.98
0,17.84,-977.31,11.49
0,16.52,-978.39,16.64
0,15.80,-978.63,12.69
0,18.08,-978.63,9.82
0,17.84,-978.75,10.77
0,16.28,-978.99,14.13
0,17.84,-978.27,14.48
0,15.44,-978.39,10.53
0,19.75,-979.71,12.57
0,16.28,-974.32,8.14
0,21.31,-983.54,11.01
0,12.57,-980.31,17.24
0,16.16,-980.78,9.22
0,20.35,-978.15,9.22
0,15.56,-979.11,12.69
0,16.64,-979.59,11.49
0,17.60,-976.95,11.61
0,17.96,-980.90,4.91
0,17.96,-979.71,9.22
0,15.32,-978.99,10.77
0,17.84,-977.43,9.82
0,17.24,-974.44,2.27
0,17.96,-979.47,8.98
0,16.52,-978.99,9.82
0,17.12,-979.35,8.50
0,17.36,-978.75,7.78
0,17.48,-976.48,8.62
0,17.12,-979.47,9.94
0,17.24,-979.23,10.30
0,17.96,-978.99,8.50
0,17.00,-977.91,8.86
0,17.00,-978.75,9.46
0,18.56,-978.39,7.90
0,19.03,-979.23,6.58
0,16.76,-978.75,8.74
0,16.88,-978.15,8.14
0,19.03,-980.43,2.04
0,16.16,-981.02,9.82
0,17.48,-978.03,6.82
0,17.96,-978.99,6.34
0,17.24,-978.27,10.77
0,17.72,-979.47,9.34
0,18.08,-979.11,7.78
0,15.68,-980.19,13.89
0,18.56,-974.80,9.10
0,16.64,-980.07,12.09
0,17.24,-978.63,4.55
0,17.96,-978.03,4.19
0,17.12,-977.67,6.46
0,16.64,-979.11,7.18
0,17.48,-978.27,6.58
0,15.32,-978.03,8.26
0,17.96,-970.37,-1.92
0,15.32,-980.07,8.02
0,23.10,-985.57,8.26
0,17.60,-977.91,13.77
0,15.80,-980.66,13.41
0,17.72,-978.75,12.81
0,17.36,-978.39,8.86
0,18.67,-978.27,13.53
0,17.24,-978.27,8.62
0,18.44,-979.11,9.70
0,15.44,-979.35,17.36
0,16.76,-977.31,9.46
0,18.67,-979.47,8.50
0,17.00,-979.47,11.13
0,15.68,-978.51,16.64
0,15.56,-978.87,14.25
0,17.60,-977.91,11.61
0,15.92,-979.11,11.01
0,17.36,-979.83,14.25
0,17.48,-979.59,13.17
0,14.60,-979.23,12.33
0,15.80,-979.95,14.60
0,16.76,-979.11,13.53
0,19.03,-978.51,8.86
0,15.08,-977.67,14.25
0,16.04,-977.43,15.20
0,19.75,-979.11,12.69
0,16.28,-979.95,11.85
0,15.56,-979.11,14.72
0,18.08,-979.23,13.05
0,16.28,-978.99,10.53
0,17.24,-979.11,14.60
0,16.76,-979.23,13.53
0,17.60,-979.11,8.50
0,16.88,-979.35,11.97
0,15.32,-978.87,14.96
0,17.72,-978.51,11.97
0,17.00,-977.79,10.65
0,16.16,-979.59,16.16
0,16.40,-977.07,15.56
0,17.12,-982.22,12.09
0,23.46,-979.95,11.01
0,16.64,-978.03,14.37
0,17.00,-978.99,16.64
0,10.06,-968.33,3.47
0,4.91,-972.76,-5.99
0,20.83,-981.98,47.17
0,16.40,-981.38,2.75
0,19.63,-978.51,-0.24
0,14.96,-979.71,24.42
0,16.88,-977.19,23.70
0,21.07,-976.95,4.79
0,16.16,-977.91,7.54
0,15.56,-978.39,25.62
0,18.91,-978.15,14.01
0,20.11,-982.70,5.39
0,13.89,-973.72,12.93
0,18.44,-979.83,16.04
0,17.72,-979.83,11.49
0,19.63,-979.47,8.26
0,18.44,-978.15,14.01
0,14.01,-977.91,16.40
0,18.56,-978.99,11.73
0,18.08,-978.99,9.94
0,17.36,-978.27,15.56
0,15.92,-978.03,16.52
0,17.72,-978.15,12.45
0,17.12,-979.11,11.97
0,15.92,-978.51,14.48
0,16.52,-978.75,14.25
0,18.08,-979.47,13.89
0,18.20,-978.87,12.81
0,16.64,-978.63,13.65
0,16.28,-978.51,15.08
0,17.84,-978.63,12.57
0,17.72,-978.15,12.09
0,18.91,-983.54,18.20
0,15.08,-980.43,14.60
0,16.64,-979.35,14.60
0,15.92,-979.59,12.33
0,16.88,-978.87,14.01
0,18.44,-979.59,14.96
0,17.48,-979.95,13.77
0,17.48,-978.87,14.25
0,16.88,-979.47,13.29
0,16.88,-979.11,14.01
0,17.36,-978.87,14.01
0,16.52,-978.99,14.13
0,17.00,-979.47,14.13
0,17.12,-979.59,14.01
0,16.64,-978.63,13.53
0,17.60,-978.63,13.05
0,17.12,-979.11,13.65
0,16.52,-978.75,14.37
0,17.24,-978.99,14.01
0,17.48,-978.63,13.41
0,17.24,-978.75,13.53
0,17.36,-978.99,14.01
0,17.12,-978.75,14.37
0,17.36,-978.63,14.13
0,17.72,-978.27,13.17
0,17.00,-979.23,13.77
0,17.12,-979.47,14.01
0,17.12,-978.99,13.41
0,17.48,-978.51,14.72
0,16.76,-978.39,13.53
0,17.72,-979.11,13.89
0,16.64,-979.83,13.29
0,17.84,-978.51,13.29
0,17.12,-978.87,13.41
0,17.48,-978.99,14.01
0,17.48,-978.75,14.01
0,17.84,-979.71,13.65
0,16.76,-978.87,13.17
0,16.76,-978.27,13.53
0,15.68,-979.23,14.01
0,16.88,-978.63,14.37
0,16.52,-978.87,14.13
0,17.24,-979.35,14.48
0,17.12,-978.27,14.13
0,16.40,-977.91,13.65
0,18.91,-978.51,13.77
0,17.84,-978.39,13.29
0,17.72,-977.55,14.13
0,17.96,-978.75,15.80
0,26.10,-979.35,13.53
0,14.25,-978.87,10.53
0,11.49,-978.63,11.73
0,20.71,-979.11,20.71
0,21.31,-980.31,13.29
0,15.32,-978.87,8.02
0,17.36,-978.75,16.04
0,16.76,-979.83,16.76
0,16.40,-980.07,11.61
0,17.72,-978.87,12.81
0,17.36,-979.35,15.56
0,15.56,-978.75,13.53
0,17.00,-978.99,13.05
0,17.60,-978.87,12.33
0,16.88,-978.63,13.77
0,16.28,-978.39,13.65
0,17.72,-978.39,13.65
0,18.32,-979.11,12.21
0,17.12,-980.07,13.05
0,16.28,-979.59,13.65
0,17.60,-978.51,14.13
0,17.00,-978.51,11.97
0,17.48,-978.99,13.41
0,17.24,-979.23,14.48
0,17.72,-978.03,14.48
0,17.00,-978.63,13.53
0,17.60,-977.79,13.53
0,17.48,-978.75,13.77
0,18.08,-978.27,14.60
0,17.60,-978.51,13.89
0,18.79,-978.99,13.41
0,17.60,-978.51,14.13
0,16.52,-979.11,14.25
0,17.00,-978.87,14.25
0,16.88,-979.35,14.01
0,17.72,-978.51,13.77
0,16.28,-979.11,14.72
0,17.24,-978.75,13.17
0,17.60,-978.87,13.77
0,17.48,-978.39,13.89
0,16.76,-979.11,15.20
0,17.24,-979.35,14.25
0,17.48,-978.27,13.65
0,17.72,-978.99,14.01
0,17.48,-978.63,14.60
0,16.64,-979.11,13.89
0,16.88,-978.75,14.13
0,17.24,-977.91,13.41
0,17.60,-978.15,14.25
0,17.60,-979.35,14.01
0,16.88,-978.39,13.89
0,18.08,-978.75,13.05
0,17.24,-978.03,13.77
0,17.96,-978.99,13.89
0,17.36,-978.99,14.01
0,16.64,-978.87,13.77
0,17.12,-978.63,13.77
0,16.76,-978.51,13.89
0,18.08,-977.91,13.77
0,17.12,-978.39,13.77
0,17.96,-979.23,13.05
0,18.20,-978.03,12.81
0,17.12,-978.39,13.77
0,17.84,-978.63,14.13
0,18.20,-978.99,13.77
0,16.88,-978.75,13.77
0,17.48,-978.99,14.60
0,16.64,-978.51,13.41
0,17.48,-978.75,14.01
0,17.24,-979.71,13.41
0,17.12,-978.63,14.48
0,17.12,-979.35,13.65
0,17.36,-977.43,13.89
0,17.60,-978.63,13.53
0,17.36,-978.39,13.53
0,17.36,-978.39,14.25
0,17.12,-978.63,14.01
0,16.88,-978.75,13.53
0,17.72,-978.87,14.37
0,16.88,-978.99,14.25
0,17.84,-978.87,13.53
0,17.24,-978.75,13.65
0,16.76,-979.71,14.72
0,16.76,-978.51,14.01
0,17.00,-979.35,14.01
0,16.88,-979.23,13.17
0,16.16,-978.87,13.77
0,17.48,-978.39,14.25
0,17.36,-978.15,13.77
0,18.08,-979.71,13.65
0,17.84,-978.51,13.29
0,17.72,-978.39,13.53
0,17.60,-978.39,13.77
0,17.36,-978.99,13.89
0,16.64,-978.87,13.17
0,16.88,-979.23,13.53
0,17.36,-978.75,14.01
0,16.52,-979.23,13.89
0,16.88,-979.35,13.77
0,17.12,-978.15,13.29
0,16.52,-979.11,13.17
0,17.24,-978.27,13.53
0,16.76,-978.99,13.53
0,18.32,-979.95,14.01
0,16.64,-978.75,14.13
0,16.76,-978.63,13.89
0,17.12,-979.23,13.89
0,16.88,-978.63,13.53
0,17.12,-978.51,13.77
0,17.48,-979.35,13.53
0,17.96,-977.67,13.89
0,18.32,-977.91,13.41
0,17.00,-978.63,14.01
0,17.84,-978.15,12.93
0,17.24,-979.83,13.89
0,17.72,-978.99,12.93
0,16.64,-978.99,14.13
0,17.24,-979.11,13.89
0,17.00,-978.39,13.17
0,17.12,-979.35,13.05
0,17.24,-979.11,13.89
0,17.84,-978.15,13.05
0,17.12,-978.27,13.89
0,17.36,-978.87,13.53
0,17.48,-979.71,13.89
0,17.96,-978.27,13.41
0,18.08,-978.51,13.65
0,17.48,-978.39,13.29
0,17.60,-978.99,13.41
0,17.36,-980.19,13.17
0,17.96,-979.11,12.81
0,17.72,-979.23,13.65
0,17.00,-979.23,13.65
0,17.24,-978.99,13.65
0,17.12,-978.39,13.65
0,16.52,-979.47,13.53
0,17.72,-978.99,13.65
0,17.84,-978.27,13.05
0,18.20,-978.03,13.77
0,16.52,-979.59,13.53
0,17.00,-978.75,13.17
0,16.52,-978.75,13.05
0,17.12,-978.87,13.41
0,17.24,-978.51,13.17
0,17.12,-979.47,13.53
0,17.36,-978.87,13.17
0,18.20,-979.83,13.05
0,17.60,-979.23,13.29
0,17.60,-978.51,13.53
0,17.96,-978.63,14.01
0,17.24,-978.99,13.65
0,17.12,-978.27,13.41
0,17.84,-978.99,12.81
0,18.08,-978.63,13.65
0,17.00,-978.99,13.41
0,17.12,-978.75,13.29
0,17.24,-979.23,14.25
0,17.24,-978.75,13.53
0,17.84,-978.51,13.41
0,16.76,-978.87,13.89
0,16.88,-979.11,13.89
0,17.36,-979.59,13.65
0,18.32,-978.99,13.41
0,16.64,-978.39,13.65
0,17.24,-978.75,13.77
0,17.36,-977.55,13.53
0,17.12,-977.79,13.29
0,17.00,-979.23,14.01
0,17.00,-978.63,13.29
0,16.76,-978.39,13.65
0,16.76,-979.47,13.05
0,17.84,-977.79,14.01
0,16.52,-978.63,13.41
0,17.00,-978.75,13.41
0,17.72,-979.35,13.65
0,16.52,-978.63,13.65
0,17.48,-978.63,13.77
0,16.88,-978.03,14.01
0,17.00,-978.87,13.89
0,17.36,-979.95,13.89
0,16.64,-979.35,13.53
0,17.84,-979.47,13.53
0,17.60,-978.75,13.89
0,16.88,-978.75,13.77
0,17.24,-978.87,14.01
0,17.24,-978.51,13.29
0,17.12,-978.39,12.93
0,16.52,-979.11,13.41
0,17.24,-979.71,13.53
0,17.36,-978.75,13.17
0,17.12,-979.23,13.41
0,17.72,-979.11,13.77
0,17.48,-978.27,13.41
0,17.36,-978.39,13.41
0,17.84,-979.23,13.17
0,16.88,-978.75,13.05
0,17.84,-978.15,13.41
0,17.48,-978.27,13.41
0,16.88,-978.51,13.89
0,17.00,-979.11,13.17
0,17.96,-979.23,13.53
0,17.36,-979.23,12.57
0,16.52,-978.15,13.77
0,17.48,-978.75,12.33
0,17.00,-977.79,12.69
0,17.48,-978.75,13.53
0,17.96,-978.63,13.65
0,17.12,-979.35,13.65
0,17.60,-979.11,13.17
0,17.24,-978.99,13.41
0,17.36,-978.99,13.65
0,17.36,-978.99,13.29
0,17.84,-978.99,13.29
0,17.36,-979.11,14.01
0,17.36,-978.75,13.29
0,17.12,-978.87,13.29
0,17.48,-979.11,13.65
0,17.00,-979.11,13.77
0,16.64,-977.79,13.65
0,17.60,-978.27,13.77
0,17.84,-979.59,13.65
0,17.36,-978.39,13.89
0,16.76,-979.95,13.65
0,18.08,-978.51,12.81
0,17.12,-978.75,13.29
0,17.48,-978.87,13.89
0,18.20,-979.59,14.25
0,17.48,-977.55,13.65
0,17.60,-978.87,13.17
0,17.12,-978.75,13.05
0,17.36,-979.47,13.77
0,16.76,-978.99,13.77
0,16.16,-979.47,13.41
0,16.88,-978.63,13.29
0,17.72,-978.39,12.69
0,17.24,-979.47,13.41
0,17.36,-978.63,13.17
0,17.48,-978.75,12.93
0,17.12,-978.63,12.81
0,17.24,-979.11,13.53
0,17.60,-978.51,13.77
0,16.64,-979.11,13.29
0,16.28,-978.51,13.53
0,17.12,-979.11,13.29
0,17.48,-979.47,12.81
0,16.52,-979.11,12.45
0,17.12,-978.63,13.17
0,17.96,-979.59,14.25
0,17.12,-978.99,13.65
0,17.36,-979.11,13.41
0,17.36,-978.99,13.77
0,17.24,-978.63,13.29
0,16.88,-978.63,13.17
0,17.00,-978.99,13.05
0,16.88,-978.51,13.89
0,17.00,-978.75,13.41
0,16.52,-978.51,14.01
0,17.12,-979.83,13.17
0,17.24,-978.75,14.01
0,18.08,-979.23,13.65
0,17.24,-979.11,12.69
0,16.40,-978.99,13.05
0,16.40,-978.15,13.29
0,17.24,-978.99,13.05
0,17.96,-979.35,13.17
0,17.24,-979.35,13.65
0,17.00,-979.11,13.53
0,16.28,-979.47,13.53
0,17.36,-979.23,13.41
0,18.08,-979.23,13.17
0,17.48,-978.63,13.41
0,17.00,-978.87,13.29
0,17.72,-978.51,13.65
0,17.48,-977.79,13.53
0,17.72,-978.87,13.53
0,16.76,-978.75,13.65
0,16.40,-978.03,14.25
0,17.12,-979.35,13.41
0,17.24,-978.63,13.65
0,17.12,-978.39,13.77
0,17.36,-978.75,13.89
0,17.00,-978.99,14.13
0,17.12,-979.71,13.29
0,17.60,-978.75,14.01
0,17.00,-978.15,13.41
0,17.00,-978.75,14.25
0,16.64,-977.79,13.29
0,16.76,-978.87,13.17
0,16.40,-978.99,13.65
0,17.72,-978.63,13.65
0,16.76,-978.51,13.77
0,16.40,-978.99,13.77
0,16.76,-978.15,13.65
0,17.36,-978.75,13.29
0,17.60,-979.11,13.53
0,17.00,-978.87,13.41
0,16.88,-978.87,14.01
0,17.60,-978.51,13.53
0,17.36,-977.91,13.89
0,17.72,-978.51,13.41
0,18.67,-978.75,13.77
0,17.60,-978.39,13.29
0,16.88,-979.47,13.53
0,17.72,-978.39,14.01
0,17.60,-978.63,13.77
0,17.60,-978.75,13.41
0,17.12,-978.15,13.65
0,16.52,-979.23,13.89
0,17.60,-978.51,13.53
0,17.12,-978.75,13.89
0,18.32,-978.51,13.77
0,17.00,-978.39,13.89
0,17.96,-979.11,13.05
0,17.12,-979.59,13.53
0,17.36,-978.87,13.05
0,17.12,-978.99,13.05
0,17.00,-978.27,13.05
0,17.36,-979.47,13.41
0,17.00,-978.39,13.65
0,17.36,-978.51,13.29
0,16.64,-978.63,13.89
0,17.60,-978.99,13.77
0,17.48,-978.99,13.53
0,17.60,-978.15,14.37
0,17.00,-979.11,14.01
0,17.12,-979.59,13.65
0,16.64,-978.03,13.65
0,17.36,-979.35,13.89
0,17.48,-978.63,13.77
0,17.00,-979.35,13.17
0,17.60,-978.87,12.81
0,17.00,-978.87,13.77
0,17.36,-978.63,14.01
0,17.96,-978.75,13.05
0,16.76,-978.87,13.41
0,17.12,-978.27,13.65
0,16.88,-979.47,14.01
0,17.84,-978.99,12.57
0,17.72,-978.15,13.41
0,16.76,-978.27,13.65
0,17.48,-978.75,13.65
0,17.72,-979.11,13.29
0,17.48,-978.51,13.05
0,18.20,-979.83,13.41
0,17.00,-978.03,13.89
0,17.36,-979.23,13.77
0,17.72,-978.63,13.65
0,16.76,-979.11,13.89
0,17.00,-978.03,13.05
0,17.72,-978.87,13.29
0,17.96,-978.87,13.65
0,17.48,-979.35,13.41
0,17.12,-978.75,12.81
0,17.36,-978.99,13.29
0,17.12,-979.11,12.93
0,16.88,-979.11,13.05
0,17.72,-978.15,13.29
0,16.64,-978.87,13.41
0,18.32,-978.39,13.29
0,17.72,-979.11,13.41
0,17.00,-978.75,13.05
0,17.96,-978.51,13.05
0,17.36,-978.87,13.65
0,17.36,-978.51,12.93
0,18.20,-978.27,13.17
0,17.72,-979.23,13.29
0,17.48,-978.75,12.57
0,17.36,-978.51,13.05
0,17.24,-978.51,13.41
0,17.12,-978.87,13.41
0,17.12,-978.99,13.77
0,17.36,-979.23,13.53
0,17.60,-978.39,13.53
0,18.56,-979.11,13.29
0,17.84,-979.23,13.77
0,16.88,-978.99,13.29
0,17.84,-978.39,13.17
0,17.72,-977.91,13.89
0,17.24,-978.99,13.29
0,17.24,-979.35,13.17
0,17.00,-979.59,13.65
0,16.88,-979.35,13.29
0,17.60,-978.87,13.41
0,16.76,-978.75,13.65
0,17.60,-979.23,13.29
0,17.36,-978.39,13.17
0,17.48,-978.63,13.53
0,17.36,-979.35,14.01
0,16.40,-977.79,13.17
0,17.00,-978.75,13.77
0,17.00,-979.35,14.37
0,17.36,-979.59,13.77
0,16.76,-979.23,13.89
0,17.24,-979.47,12.93
0,18.44,-978.15,14.01
0,18.08,-978.51,13.53
0,17.12,-980.07,13.77
0,16.16,-977.91,13.41
0,17.24,-979.35,14.13
0,16.40,-978.27,13.41
0,17.12,-979.59,13.05
0,17.12,-979.35,14.13
0,17.60,-978.27,14.01
0,17.36,-978.87,14.48
0,17.36,-979.47,13.41
0,17.72,-978.15,13.77
0,16.52,-978.75,13.65
0,17.00,-979.11,13.65
0,16.76,-978.75,14.37
0,17.24,-978.99,13.05
0,17.12,-979.35,13.41
0,16.64,-978.63,13.65
0,18.08,-978.99,13.17
0,16.40,-978.63,13.17
0,16.64,-978.75,12.57
0,16.88,-978.15,12.81
0,17.84,-978.63,13.65
0,17.12,-978.27,14.01
0,17.84,-978.51,13.65
0,16.28,-978.39,13.53
0,16.88,-978.39,13.17
0,17.72,-978.51,13.53
0,17.36,-978.87,13.17
0,16.88,-979.59,13.65
0,17.48,-978.51,12.93
0,16.88,-979.11,13.89
0,17.96,-978.27,13.41
0,17.60,-979.11,13.53
0,17.36,-978.75,12.93
0,17.96,-977.91,13.53
0,17.24,-978.27,13.41
0,17.60,-979.23,12.57
0,17.36,-978.87,13.77
0,17.48,-978.51,12.93
0,17.12,-978.75,13.29
0,16.76,-978.27,13.29
0,17.00,-979.23,12.93
0,16.04,-979.11,13.17
0,17.60,-978.27,13.53
0,17.24,-978.39,13.29
0,18.44,-978.51,12.93
0,17.12,-978.99,13.41
0,16.88,-978.87,13.05
0,17.48,-978.63,13.53
0,17.00,-978.51,13.65
0,18.08,-978.87,12.69
0,16.88,-978.99,13.05
0,17.12,-977.91,13.89
0,17.48,-978.51,13.53
0,17.24,-978.99,13.41
0,17.24,-978.51,12.93
0,17.96,-978.27,12.93
0,17.36,-978.39,12.57
0,17.24,-978.63,13.41
0,17.60,-978.87,12.93
0,17.00,-977.79,12.93
0,17.36,-978.63,12.93
0,17.96,-979.35,13.29
0,17.84,-979.35,13.17
0,16.28,-978.51,13.29
0,17.12,-978.51,13.17
0,17.24,-978.39,13.41
0,18.20,-978.99,13.17
0,17.36,-979.23,12.93
0,16.40,-979.11,13.17
0,17.36,-978.87,13.17
0,16.28,-978.87,13.29
0,17.24,-978.87,13.05
0,17.96,-978.39,13.17
0,17.60,-978.87,12.57
0,17.00,-979.95,13.53
0,17.36,-978.15,12.57
0,17.84,-978.39,13.05
0,17.72,-978.39,12.33
0,17.24,-978.75,13.53
0,17.12,-978.63,13.41
0,16.88,-977.07,13.41
0,16.76,-978.39,13.29
0,17.48,-978.03,12.45
0,17.36,-978.87,13.17
0,17.72,-978.63,12.81
0,17.36,-978.75,12.93
0,17.00,-978.75,12.57
0,16.64,-979.11,13.65
0,17.24,-979.23,13.05
0,17.00,-978.51,13.17
0,17.24,-978.15,13.41
0,17.24,-978.87,12.57
0,17.00,-978.51,12.93
0,17.00,-978.15,12.21
0,17.84,-978.99,12.81
0,16.64,-978.27,12.57
0,17.96,-978.27,12.33
0,17.24,-978.63,12.57
0,17.48,-979.23,13.05
0,17.36,-978.15,13.05
0,17.72,-979.35,13.53
0,17.48,-978.63,12.81
0,18.20,-978.87,13.53
0,16.88,-978.87,13.05
0,17.12,-978.03,12.81
0,17.48,-978.63,12.57
0,18.08,-978.75,13.05
0,16.76,-978.39,13.05
0,17.24,-979.11,13.29
0,17.48,-978.39,12.09
0,17.48,-978.99,13.17
0,17.72,-978.51,12.69
0,17.24,-979.11,13.65
0,16.40,-978.39,13.77
0,17.84,-978.27,12.81
0,18.20,-978.03,11.85
0,17.96,-978.51,12.57
0,18.44,-978.63,13.89
0,17.72,-978.03,13.17
0,17.00,-978.63,13.29
0,17.48,-978.39,12.45
0,17.48,-978.87,12.81
0,16.64,-978.63,12.69
0,17.60,-979.35,13.05
0,16.88,-978.63,13.05
0,17.00,-978.63,13.65
0,17.60,-979.23,13.53
0,16.88,-978.51,13.05
0,17.00,-978.51,12.81
0,17.24,-978.63,12.69
0,17.36,-978.03,12.45
0,17.48,-978.63,12.69
0,17.84,-978.99,13.41
0,17.36,-979.11,13.05
0,17.36,-979.23,13.41
0,16.88,-978.39,13.41
0,17.96,-978.63,12.69
0,17.12,-978.39,12.81
0,16.88,-978.63,12.81
0,17.72,-979.11,13.17
0,17.00,-978.75,13.17
0,17.00,-978.15,13.05
0,17.36,-978.15,11.97
0,17.48,-978.99,13.29
0,17.24,-977.67,12.57
0,17.60,-978.27,13.05
0,17.48,-978.75,12.57
0,17.36,-978.39,12.81
0,17.36,-978.15,13.05
0,17.60,-978.63,12.45
0,17.96,-978.39,14.01
0,17.60,-978.75,12.81
0,16.76,-978.39,13.17
0,17.12,-978.03,12.69
0,16.88,-978.99,13.41
0,17.36,-978.75,13.41
0,18.20,-978.15,12.93
0,17.72,-979.83,13.41
0,18.44,-978.87,12.81
0,16.88,-979.23,13.65
0,17.24,-978.03,13.17
0,17.12,-978.15,12.57
0,17.00,-978.03,13.05
0,17.24,-978.15,13.17
0,18.20,-977.91,12.57
0,16.52,-978.39,12.93
0,17.72,-978.03,13.77
0,17.12,-978.75,13.77
0,17.60,-978.27,12.69
0,18.08,-978.51,13.05
0,17.60,-979.11,13.41
0,17.36,-978.39,13.29
0,17.24,-978.63,13.89
0,17.36,-978.75,13.53
0,17.12,-979.11,13.17
0,17.36,-978.27,13.29
0,17.36,-978.75,13.05
0,17.96,-978.87,13.29
0,17.36,-979.35,12.93
0,17.12,-978.63,12.81
0,16.64,-978.99,13.05
0,17.36,-978.27,13.41
0,17.36,-978.27,13.53
0,17.48,-978.99,12.81
0,16.88,-978.63,13.05
0,17.00,-979.11,13.29
0,17.12,-978.99,13.41
0,16.88,-978.87,13.29
0,16.52,-978.87,13.53
0,17.84,-979.11,13.17
0,17.96,-978.51,12.93
0,16.28,-978.27,13.29
0,17.36,-979.23,13.29
0,17.24,-979.11,13.29
0,17.60,-978.99,13.65
0,17.00,-978.87,13.17
0,17.00,-979.11,12.93
0,17.12,-978.03,13.77
0,16.64,-978.15,12.81
0,16.88,-979.47,13.17
0,17.36,-978.87,13.05
0,17.84,-978.63,13.41
0,17.36,-978.87,13.29
0,17.00,-978.99,14.01
0,17.48,-978.39,13.77
0,17.36,-978.87,13.29
0,17.00,-978.39,13.77
0,17.24,-978.99,13.29
0,16.88,-978.27,13.53
0,17.60,-977.67,12.93
0,16.88,-978.99,13.53
0,17.36,-978.99,13.65
0,17.48,-978.87,13.05
0,16.88,-978.75,13.77
0,17.12,-978.15,13.77
0,16.88,-978.63,13.29
0,17.60,-978.75,13.65
0,17.24,-979.23,13.41
0,17.84,-978.27,13.77
0,16.76,-978.03,13.89
0,18.08,-978.75,13.41
0,17.60,-979.11,13.89
0,16.76,-978.99,13.53
0,17.48,-978.39,13.89
0,17.84,-978.15,13.17
0,17.84,-978.39,13.53
0,17.72,-978.51,13.05
0,16.52,-977.91,13.77
0,17.72,-978.99,13.41
0,17.12,-977.55,13.17
0,16.64,-979.23,13.53
0,17.72,-978.87,13.89
0,16.64,-978.15,13.29
0,17.72,-978.75,13.77
0,17.12,-978.51,13.65
0,17.24,-978.99,13.41
0,17.24,-978.75,14.13
0,17.36,-978.99,13.05
0,17.12,-978.27,14.13
0,17.96,-978.63,13.65
0,16.28,-979.23,13.17
0,17.24,-978.63,13.17
0,16.88,-978.39,13.65
0,17.12,-978.75,13.65
0,17.12,-978.63,12.93
0,17.60,-979.59,13.17
0,17.96,-978.51,12.45
0,17.48,-978.99,13.53
0,17.84,-978.63,14.01
0,16.88,-978.39,13.77
0,17.12,-978.51,12.45
0,17.12,-979.11,12.69
0,17.00,-978.87,13.77
0,17.24,-978.15,13.05
0,17.48,-979.11,13.29
0,16.28,-977.91,12.93
0,17.24,-979.71,13.05
0,17.36,-978.51,13.65
0,17.12,-978.87,13.29
0,17.12,-978.39,13.05
0,16.88,-978.87,12.93
0,16.88,-978.63,13.65
0,17.12,-979.35,13.41
0,16.40,-977.91,12.81
0,17.48,-978.51,12.93
0,16.88,-979.23,13.05
0,17.12,-978.75,13.29
0,17.48,-978.39,13.05
0,17.48,-978.87,13.41
0,17.48,-978.63,13.65
0,17.72,-978.51,13.41
0,16.64,-978.03,13.05
0,16.76,-978.99,13.41
0,17.24,-978.99,12.81
0,17.60,-978.87,12.81
0,17.48,-978.99,13.53
0,17.48,-979.95,13.77
0,17.84,-979.35,13.17
0,17.72,-979.23,13.41
0,16.76,-978.63,14.01
0,16.52,-978.51,13.77
0,16.76,-978.15,13.41
0,17.60,-978.75,13.65
0,17.12,-978.51,14.01
0,17.36,-978.87,13.77
0,17.12,-979.11,13.77
0,16.88,-978.99,13.89
0,17.12,-978.63,13.17
0,17.60,-978.51,13.41
0,17.72,-978.39,13.29
0,17.60,-978.75,13.65
0,17.24,-979.11,14.01
0,17.12,-978.63,13.17
0,18.32,-978.75,12.69
0,16.28,-978.87,13.89
0,17.72,-978.63,13.65
0,17.00,-979.11,13.89
0,17.00,-978.99,13.41
0,17.36,-977.91,13.29
0,16.88,-978.63,13.17
0,17.00,-978.39,13.29
0,16.16,-978.99,13.77
0,17.60,-977.67,13.53
0,17.48,-978.99,14.13
0,17.60,-979.35,13.77
0,17.00,-978.39,13.89
0,16.88,-978.87,13.77
0,16.76,-978.03,13.77
0,17.48,-978.63,13.65
0,17.00,-979.47,14.25
0,17.24,-979.23,13.53
0,17.12,-978.63,13.65
0,17.48,-977.91,14.25
0,17.24,-978.87,13.65
0,17.48,-979.47,13.89
0,17.36,-978.15,13.65
0,17.00,-978.51,13.77
0,17.72,-978.87,13.89
0,17.36,-979.23,13.65
0,17.36,-978.27,13.17
0,17.24,-978.87,14.37
0,16.88,-978.75,14.48
0,17.24,-978.99,13.29
0,17.12,-978.27,13.53
0,17.12,-978.15,13.53
0,17.48,-978.15,13.41
0,17.36,-979.47,14.01
0,16.76,-978.27,13.89
0,17.48,-978.75,14.01
0,17.48,-978.63,13.53
0,17.72,-978.99,13.53
0,17.00,-978.87,13.77
0,17.12,-978.27,13.17
0,17.00,-978.75,13.89
0,16.88,-978.51,13.77
0,18.20,-979.83,13.77
0,17.60,-979.11,13.89
0,17.48,-978.99,13.53
0,17.00,-978.63,13.65
0,17.12,-978.99,14.01
0,16.64,-978.63,13.89
0,17.24,-979.11,13.65
0,17.12,-979.59,13.29
0,17.12,-978.87,13.41
0,17.00,-979.23,13.89
0,17.48,-979.11,13.89
0,17.84,-978.63,12.93
0,16.64,-978.51,12.57
0,17.24,-978.75,13.29
0,17.12,-978.63,13.29
0,16.88,-978.51,13.41
0,17.24,-978.27,13.29
0,17.00,-979.11,13.29
0,16.88,-978.63,12.69
0,16.64,-978.75,13.77
0,16.40,-978.39,14.13
0,17.96,-979.35,12.81
0,17.00,-978.51,13.41
0,17.72,-978.75,14.01
0,17.36,-978.27,13.65
0,17.36,-978.75,13.41
0,17.12,-979.35,14.01
0,17.00,-978.39,13.53
0,17.36,-978.63,14.01
0,16.28,-979.11,13.77
0,17.48,-979.71,13.53
0,17.84,-978.51,13.65
0,16.52,-978.63,14.37
0,17.24,-978.51,14.01
0,16.88,-978.63,14.01
0,17.12,-978.99,14.25
0,17.36,-979.35,14.13
0,17.24,-978.99,14.01
0,17.72,-978.75,13.65
0,16.76,-978.87,13.53
0,17.60,-978.87,13.17
0,17.36,-978.51,13.77
0,17.24,-979.35,13.29
0,17.12,-978.51,13.65
0,17.60,-978.75,13.77
0,17.36,-978.63,13.65
0,16.76,-978.51,14.13
0,16.88,-979.11,13.29
0,17.24,-978.39,13.65
0,17.96,-979.11,13.17
0,16.76,-979.35,13.65
0,17.24,-978.03,12.93
0,17.12,-979.35,13.17
0,17.96,-979.23,13.29
0,17.48,-978.51,13.29
0,16.88,-979.35,13.29
0,17.12,-978.63,12.93
0,17.24,-978.27,13.17
0,17.36,-979.11,12.33
0,17.60,-979.23,13.77
0,17.48,-979.11,12.93
0,16.88,-978.39,12.81
0,17.48,-978.39,12.69
0,16.88,-978.63,13.05
0,17.00,-978.87,12.93
0,16.76,-979.11,12.93
0,17.84,-979.11,13.53
0,17.96,-978.27,12.57
0,18.20,-978.51,12.93
0,17.12,-978.75,13.17
0,17.24,-978.63,13.77
0,16.76,-978.87,14.01
0,17.00,-979.11,13.53
0,17.24,-978.15,13.17
0,16.04,-978.75,13.89
0,16.52,-978.87,13.17
0,17.24,-979.11,13.65
0,17.24,-978.63,13.17
0,17.72,-979.35,13.41
0,16.40,-978.75,13.77
0,17.96,-978.75,13.53
0,17.72,-978.75,13.53
0,17.36,-978.15,13.77
0,16.88,-978.99,13.65
0,17.24,-978.03,13.41
0,18.44,-978.27,13.65
0,17.48,-978.27,13.29
0,17.48,-977.67,13.53
0,17.48,-978.87,13.53
0,17.36,-979.35,13.53
0,17.12,-978.99,13.77
0,16.64,-978.51,13.29
0,17.24,-978.63,13.65
0,17.00,-978.87,13.53
0,17.00,-978.63,13.65
0,17.00,-979.47,14.25
0,17.12,-978.75,13.41
0,16.88,-979.35,13.65
0,17.24,-978.51,14.25
0,17.48,-978.39,13.41
0,17.12,-979.59,13.41
0,18.20,-978.87,13.53
0,17.48,-978.63,13.29
0,17.00,-979.11,13.77
0,16.64,-978.75,13.77
0,17.48,-978.75,13.77
0,18.20,-978.75,14.37
0,16.88,-978.99,13.77
0,17.00,-978.87,14.01
0,17.36,-978.39,14.13
0,17.36,-979.35,13.53
0,17.60,-979.11,13.53
0,17.36,-978.03,13.89
0,17.48,-978.27,13.29
0,16.52,-978.75,13.29
0,16.64,-978.75,13.77
0,16.88,-978.99,13.53
0,17.96,-978.75,14.13
0,17.12,-978.87,13.17
0,17.00,-979.23,13.53
0,17.60,-978.51,13.89
0,16.88,-979.35,12.69
0,17.48,-978.75,13.41
0,17.24,-978.87,13.17
0,17.12,-979.11,13.77
0,17.00,-978.63,13.05
0,16.88,-979.11,13.41
0,17.36,-978.87,13.77
0,17.72,-978.87,13.17
0,17.24,-978.63,13.53
0,17.36,-978.99,13.05
0,17.24,-978.63,13.53
0,16.76,-978.75,12.69
0,17.96,-977.91,13.53
0,17.36,-978.87,14.13
0,16.76,-979.11,13.05
0,16.88,-978.15,13.17
0,17.36,-979.23,13.77
0,17.48,-978.39,13.77
0,17.60,-978.99,13.05
0,16.88,-979.11,13.41
0,17.48,-979.83,13.65
0,17.12,-977.91,13.65
0,17.12,-978.75,14.25
0,17.00,-978.99,13.17
0,16.76,-978.87,13.77
0,17.72,-979.11,13.29
0,16.76,-979.11,13.53
0,17.00,-979.71,12.69
0,16.28,-979.35,13.05
0,16.88,-978.75,12.45
0,18.08,-979.71,13.17
0,17.12,-979.11,12.45
0,18.08,-978.39,13.17
0,17.00,-978.87,13.05
0,17.60,-979.35,13.77
0,17.12,-978.75,12.93
0,17.12,-978.27,13.05
0,16.76,-979.47,14.01
0,17.00,-978.63,13.41
0,17.84,-978.75,13.17
0,16.64,-978.63,13.41
0,17.48,-979.11,13.17
0,16.04,-978.99,14.13
0,17.72,-978.63,13.29
0,16.88,-978.03,13.77
0,17.48,-977.79,13.05
0,16.52,-979.35,13.05
0,17.36,-978.39,13.41
0,17.12,-978.87,13.77
0,18.20,-978.87,13.29
0,17.12,-978.87,13.29
0,16.76,-979.23,13.05
0,17.48,-978.75,13.77
0,17.00,-978.63,13.29
0,17.24,-978.27,13.41
0,17.60,-978.51,13.77
0,17.84,-978.99,13.41
0,17.12,-978.87,13.41
0,16.88,-979.11,13.65
0,16.76,-978.39,13.65
0,16.88,-978.99,13.89
0,17.12,-979.35,14.01
0,17.48,-978.51,14.01
0,17.00,-978.87,13.41
0,17.60,-978.87,13.89
0,16.64,-979.35,13.17
0,16.76,-978.87,13.65
0,17.48,-979.47,13.17
0,17.60,-979.35,14.01
0,17.00,-978.87,13.05
0,17.96,-978.75,13.17
0,17.00,-978.51,14.37
0,16.88,-978.51,13.29
0,17.60,-979.35,13.53
0,16.64,-978.63,13.53
0,17.60,-978.99,13.53
0,17.84,-978.87,13.41
0,17.24,-978.63,13.65
0,17.00,-979.11,13.77
0,17.36,-978.63,13.53
0,17.24,-978.15,13.77
0,17.00,-978.27,13.53
0,17.60,-979.11,14.13
0,17.00,-979.23,13.89
0,17.48,-978.87,13.65
0,17.00,-978.99,13.53
0,17.60,-978.39,13.53
0,17.60,-978.63,13.53
0,16.64,-979.35,14.25
0,17.00,-979.11,12.81
0,17.36,-978.15,13.89
0,17.84,-978.51,12.69
0,17.48,-979.47,13.53
0,17.00,-978.39,13.77
0,17.96,-978.51,13.17
0,17.48,-978.75,12.93
0,18.44,-978.39,13.41
0,16.88,-979.47,13.41
0,17.00,-978.39,12.81
0,17.48,-979.11,13.53
0,17.12,-978.87,12.45
0,17.48,-978.63,12.81
0,17.60,-978.51,12.57
0,16.88,-978.39,12.93
0,17.24,-978.87,12.93
0,17.36,-978.75,12.93
0,17.48,-978.99,12.93
0,17.12,-978.75,12.81
0,17.48,-979.23,12.69
0,17.00,-979.11,13.29
0,17.36,-978.87,13.05
0,16.64,-978.87,13.41
0,16.88,-978.51,12.69
0,17.24,-979.23,12.93
0,17.96,-978.99,12.93
0,16.16,-979.23,12.57
0,17.12,-979.23,13.29
0,16.76,-977.91,13.53
0,17.48,-978.87,13.41
0,17.00,-978.75,12.69
0,16.76,-978.99,12.81
0,17.36,-978.99,13.05
0,17.00,-977.91,13.77
0,17.00,-979.11,13.41
0,16.52,-978.03,13.53
0,17.00,-979.23,13.05
0,17.72,-978.63,13.77
0,16.64,-979.11,13.41
0,17.12,-978.75,13.77
0,17.60,-978.99,13.17
0,16.28,-978.39,13.29
0,17.72,-979.11,12.81
0,17.36,-978.39,13.17
0,18.08,-978.51,13.41
0,17.36,-978.27,13.17
0,17.24,-978.51,13.05
0,17.48,-979.11,13.77
0,17.96,-979.47,13.29
0,17.48,-978.51,12.81
0,17.48,-978.63,12.93
0,17.00,-978.99,13.29
0,17.96,-978.27,12.93
0,18.91,-979.47,13.53
0,17.00,-978.87,12.81
0,16.88,-979.23,13.29
0,17.00,-979.11,13.65
0,17.24,-979.95,12.93
0,17.60,-977.79,13.53
0,16.76,-978.87,12.81
0,16.88,-978.99,12.81
0,16.52,-978.63,13.17
0,17.84,-978.51,13.53
0,16.88,-977.91,13.89
0,16.88,-978.51,13.41
0,17.00,-978.87,13.17
0,17.84,-978.51,13.89
0,17.72,-978.27,13.53
0,16.88,-979.71,13.05
0,16.52,-979.23,13.77
0,17.12,-978.87,12.93
0,17.36,-979.83,13.29
0,16.52,-979.23,13.29
0,16.76,-978.75,13.17
0,17.24,-979.35,13.89
0,17.48,-978.39,12.93
0,17.12,-979.47,13.53
0,17.24,-978.51,13.41
0,17.24,-978.27,13.89
0,17.48,-978.27,13.05
0,17.00,-978.99,13.65
0,17.00,-978.75,13.17
0,17.12,-978.75,14.13
0,16.88,-978.63,12.93
0,16.76,-979.11,13.65
0,17.00,-978.63,13.53
0,17.60,-978.75,13.17
0,17.12,-978.63,13.65
0,17.00,-979.23,13.41
0,17.12,-978.39,13.29
0,16.88,-978.99,13.05
0,16.76,-978.39,12.81
0,16.76,-978.03,12.45
0,16.76,-978.87,13.53
0,17.24,-979.11,13.65
0,16.76,-978.39,13.65
0,17.12,-978.75,13.41
0,17.96,-978.39,13.17
0,17.36,-978.75,13.53
0,17.00,-978.27,12.69
0,17.84,-979.11,12.69
0,17.36,-979.35,13.41
0,17.00,-978.63,12.45
0,17.00,-978.51,13.05
0,17.36,-978.15,12.81
0,17.12,-979.71,13.77
0,17.72,-978.75,13.89
0,17.96,-978.75,13.65
0,17.96,-979.47,13.65
0,17.36,-978.87,13.89
0,17.72,-979.35,12.81
0,17.24,-977.79,13.17
0,17.12,-978.51,12.45
0,16.76,-978.87,13.17
0,16.64,-979.47,13.29
0,17.48,-978.99,13.41
0,17.12,-978.63,12.93
0,17.96,-978.99,13.41
0,17.00,-978.15,13.41
0,17.00,-978.99,13.17
0,16.52,-979.35,12.93
0,17.36,-978.87,13.41
0,16.76,-978.39,13.65
0,17.00,-978.63,13.53
0,17.60,-979.23,12.93
0,16.88,-978.51,13.29
0,17.48,-978.75,12.57
0,17.24,-978.75,13.29
0,17.72,-978.15,13.29
0,17.96,-978.75,12.81
0,17.36,-979.47,13.29
0,16.88,-978.63,12.57
0,16.76,-979.23,13.05
0,17.12,-978.87,13.29
0,17.00,-979.11,13.77
0,16.88,-978.63,13.17
0,17.12,-978.51,12.69
0,16.64,-978.87,13.41
0,17.84,-979.47,12.69
0,17.24,-978.87,13.17
0,16.88,-978.27,12.93
0,17.48,-978.99,12.81
0,17.72,-978.87,13.89
0,17.36,-979.23,12.69
0,17.48,-978.99,13.89
0,17.00,-978.75,13.65
0,17.48,-978.75,14.01
0,16.16,-978.63,13.17
0,16.76,-978.75,13.53
0,17.36,-978.87,13.65
0,16.64,-978.99,13.17
0,17.36,-978.87,13.29
0,17.84,-979.11,13.05
0,18.08,-978.75,12.93
0,16.28,-979.35,14.25
0,17.60,-977.79,13.41
0,16.40,-978.15,13.65
0,17.36,-978.99,13.53
0,18.20,-978.99,13.17
0,17.48,-979.35,14.13
0,16.88,-978.87,13.77
0,17.60,-978.75,13.89
0,17.24,-978.51,13.41
0,16.28,-978.75,13.89
0,17.12,-979.23,13.65
0,17.24,-978.99,13.65
0,17.12,-978.39,13.89
0,17.48,-978.63,12.81
0,17.48,-979.11,13.17
0,18.20,-979.23,13.89
0,17.96,-978.87,13.65
0,16.76,-978.39,13.65
0,17.60,-979.59,13.29
0,17.36,-979.11,13.41
0,17.72,-978.87,13.53
0,17.36,-978.51,12.93
0,17.12,-979.11,13.53
0,17.60,-979.23,13.29
0,17.24,-977.67,13.29
0,17.24,-978.39,12.93
0,17.96,-978.75,13.17
0,17.24,-978.87,13.41
0,17.84,-978.39,13.41
0,17.24,-978.51,13.17
0,16.76,-978.51,13.29
0,17.24,-979.83,13.05
0,17.48,-979.11,12.69
0,16.88,-977.79,13.05
0,17.48,-979.59,13.17
0,16.64,-978.39,13.05
0,17.48,-978.27,13.29
0,17.36,-978.51,12.93
0,16.76,-978.51,12.81
0,17.12,-978.75,13.05
0,17.00,-979.11,12.69
0,17.72,-979.11,13.17
0,17.24,-978.27,12.81
0,17.60,-978.87,12.69
0,17.00,-979.47,13.29
0,17.36,-978.15,13.53
0,17.72,-979.11,13.41
0,17.24,-978.63,13.05
0,17.48,-979.23,12.45
0,17.00,-978.87,12.81
0,16.76,-978.03,13.41
0,17.00,-980.19,13.29
0,17.36,-978.27,13.77
0,17.48,-978.27,12.57
0,16.88,-978.63,13.29
0,17.12,-978.51,13.17
0,17.24,-979.11,13.41
0,16.64,-978.75,13.41
0,17.96,-978.63,13.05
0,16.52,-978.15,12.93
0,17.24,-978.63,14.60
0,16.76,-978.51,13.17
0,17.96,-978.75,13.05
0,17.36,-978.15,13.29
0,17.00,-978.75,13.05
0,17.60,-978.51,12.81
0,16.64,-979.35,13.89
0,17.12,-978.27,13.53
0,17.24,-979.23,13.29
0,17.00,-978.39,13.65
0,16.64,-979.11,13.17
0,18.08,-978.87,13.17
0,17.48,-978.03,13.17
0,17.24,-978.99,13.17
0,16.88,-978.51,12.81
0,16.88,-978.51,13.41
0,17.12,-978.99,13.53
0,16.76,-978.39,13.65
0,17.00,-978.63,13.41
0,17.84,-978.75,12.93
0,17.84,-978.87,12.69
0,17.12,-978.75,13.65
0,17.12,-978.27,13.05
0,17.36,-978.63,13.29
0,17.24,-978.87,13.41
0,16.88,-978.99,13.65
0,16.88,-978.51,13.05
0,17.48,-978.87,13.77
0,17.48,-978.87,13.05
0,17.24,-978.99,13.05
0,17.24,-979.35,13.17
0,17.48,-978.75,12.57
0,17.12,-978.51,12.57
0,17.60,-978.99,13.89
0,17.00,-978.15,13.65
0,16.76,-978.39,12.81
0,17.72,-978.03,13.77
0,17.00,-978.75,13.05
0,18.20,-979.47,13.53
0,17.60,-979.47,13.41
0,17.12,-978.15,13.65
0,16.64,-978.51,13.53
0,17.24,-977.91,13.53
0,17.12,-978.63,13.29
0,17.60,-978.87,13.65
0,16.28,-979.47,13.29
0,16.76,-979.23,13.41
0,16.28,-978.87,13.29
0,18.20,-978.27,12.81
0,17.36,-978.87,12.81
0,17.96,-978.63,13.29
0,16.88,-978.87,13.41
0,16.28,-978.87,13.53
0,17.36,-979.11,13.65
0,17.24,-978.75,13.53
0,16.64,-978.63,13.53
0,16.64,-978.63,13.65
0,17.00,-978.15,13.41
0,17.12,-979.35,12.93
0,17.72,-978.87,12.93
0,17.00,-978.39,12.81
0,16.64,-978.51,13.05
0,17.36,-977.91,13.05
0,17.84,-978.99,12.69
0,17.84,-978.39,13.41
0,17.84,-978.87,12.45
0,18.08,-978.87,13.53
0,17.84,-978.87,13.53
0,17.96,-978.87,12.69
0,17.60,-978.75,13.53
0,17.12,-978.99,12.33
0,17.72,-978.63,12.93
0,17.00,-979.83,13.05
0,17.48,-978.75,13.41
0,17.96,-979.11,13.53
0,17.12,-979.23,13.29
0,17.36,-978.99,13.17
0,17.24,-978.51,13.05
0,16.88,-979.11,13.29
0,17.84,-978.63,14.01
0,17.36,-978.99,13.53
0,17.00,-978.99,13.29
0,16.52,-978.75,13.65
0,17.36,-979.47,13.17
0,17.00,-979.71,13.05
0,17.00,-978.03,13.41
0,17.12,-978.63,13.29
0,17.12,-978.39,12.81
0,17.84,-978.51,13.29
0,17.00,-979.35,13.17
0,17.12,-979.35,13.05
0,16.88,-979.11,13.41
0,17.12,-979.35,13.29
0,16.64,-978.39,13.53
0,16.76,-979.83,13.17
0,17.36,-978.39,13.17
0,16.88,-978.39,13.53
0,16.40,-979.35,13.77
0,17.48,-978.27,13.53
0,16.52,-979.23,12.81
0,16.76,-979.47,13.17
0,17.12,-979.23,12.81
0,17.48,-978.63,13.05
0,16.76,-978.39,13.17
0,17.48,-978.63,13.53
0,17.36,-978.87,13.53
0,17.36,-979.35,13.05
0,16.88,-978.15,13.05
0,17.72,-978.87,13.65
0,17.00,-978.51,12.81
0,17.00,-978.39,12.93
0,17.12,-978.99,13.41
0,17.60,-978.27,13.17
0,17.24,-978.63,13.17
0,17.24,-978.75,13.53
0,17.12,-978.87,13.65
0,17.36,-978.27,13.77
0,17.36,-978.51,13.65
0,17.96,-978.15,13.89
0,17.36,-978.87,13.65
0,17.36,-978.63,12.81
0,17.24,-978.75,13.05
0,17.36,-978.27,13.53
0,17.96,-977.43,12.93
0,17.84,-979.11,13.05
0,18.08,-979.35,13.53
0,16.28,-978.75,13.17
0,17.36,-978.99,13.53
0,17.48,-978.39,13.41
0,17.48,-978.75,13.05
0,17.00,-978.51,14.01
0,16.64,-979.23,13.17
0,16.76,-979.35,13.89
0,18.79,-978.39,13.05
0,16.88,-979.47,13.29
0,17.84,-979.59,12.69
0,17.24,-978.63,13.53
0,17.00,-978.99,14.01
0,16.52,-978.63,13.41
0,17.60,-978.51,13.53
0,17.00,-978.99,13.41
0,17.96,-978.75,13.53
0,17.96,-978.15,13.17
0,16.52,-978.75,12.81
0,17.60,-978.63,13.53
0,17.96,-978.15,13.89
0,18.20,-978.75,13.65
0,17.84,-978.03,12.93
0,17.60,-978.75,13.41
0,17.60,-978.99,12.81
0,17.60,-978.03,13.17
0,16.76,-979.47,13.17
0,17.00,-978.51,13.29
0,16.88,-978.39,13.41
0,17.84,-979.23,12.81
0,17.00,-977.79,13.29
0,17.60,-978.99,13.41
0,17.36,-979.23,13.17
0,17.00,-978.39,13.05
0,17.12,-979.83,13.17
0,16.64,-978.51,12.09
0,17.60,-978.51,12.57
0,17.48,-979.35,13.53
0,17.60,-979.11,13.77
0,16.76,-979.11,12.93
0,17.60,-978.75,12.69
0,17.24,-977.67,13.05
0,18.08,-978.15,13.05
0,17.60,-978.27,13.17
0,16.88,-978.75,13.17
0,17.36,-978.39,12.69
0,17.96,-978.63,14.48
0,17.12,-979.35,13.77
0,16.88,-978.27,13.65
0,16.76,-978.99,13.53
0,17.12,-978.63,13.41
0,17.24,-979.35,12.81
0,17.00,-979.11,13.41
0,17.36,-978.27,13.29
0,17.24,-979.23,13.29
0,17.12,-978.39,13.17
0,16.28,-978.15,13.41
0,17.12,-978.99,12.81
0,16.88,-978.39,13.53
0,17.00,-979.47,13.17
0,16.88,-978.99,13.53
0,17.00,-978.87,12.93
0,16.88,-978.27,12.93
0,16.40,-977.79,13.17
0,17.24,-978.75,12.93
0,16.76,-979.11,13.17
0,16.88,-978.99,12.93
0,17.48,-979.23,13.29
0,17.24,-979.23,13.05
0,16.88,-978.63,12.81
0,17.48,-978.39,12.93
0,17.36,-978.63,13.05
0,17.48,-978.75,13.17
0,17.24,-978.27,13.53
0,17.60,-978.27,12.93
0,17.72,-979.23,13.53
0,16.88,-978.75,12.81
0,17.96,-978.87,13.05
0,17.00,-978.63,13.17
0,17.72,-978.63,13.17
0,17.84,-978.15,13.53
0,17.72,-978.75,13.29
0,17.36,-977.79,13.29
0,17.36,-978.99,13.53
0,17.84,-978.51,13.65
0,17.84,-979.11,13.77
0,16.88,-979.11,12.93
0,18.32,-978.75,13.17
0,17.60,-979.35,13.05
0,16.88,-978.63,13.41
0,17.24,-979.35,12.69
0,17.00,-978.51,13.41
0,17.72,-978.27,12.69
0,17.12,-979.35,13.53
0,17.72,-979.35,12.93
0,17.60,-978.51,13.41
0,17.36,-978.39,13.77
0,17.48,-979.47,13.77
0,17.36,-978.75,13.53
0,17.48,-978.99,13.41
0,17.12,-978.39,12.93
0,16.40,-979.35,13.89
0,17.36,-978.75,13.53
0,17.96,-978.87,13.53
0,17.72,-978.87,12.81
0,17.12,-978.03,12.93
0,17.36,-978.99,13.17
0,17.12,-977.79,13.41
0,17.60,-978.15,13.41
0,16.52,-978.15,12.93
0,17.72,-978.39,13.17
0,17.48,-979.11,13.53
0,17.00,-978.75,13.29
0,15.92,-978.99,14.13
0,17.72,-978.63,13.77
0,17.48,-978.75,13.41
0,16.88,-978.63,13.29
0,17.72,-979.23,12.93
0,17.48,-979.71,13.29
0,17.84,-978.63,13.17
0,16.40,-978.63,12.81
0,16.88,-979.71,13.41
0,17.24,-978.63,13.05
0,17.24,-978.87,13.53
0,17.60,-978.87,12.57
0,17.96,-978.99,12.93
0,17.12,-980.07,13.41
0,16.76,-978.99,13.05
0,16.88,-978.63,13.17
0,17.00,-978.63,13.05
0,17.36,-978.87,13.17
0,17.12,-979.59,13.53
0,17.36,-978.63,13.17
0,17.84,-978.99,12.93
0,17.48,-978.03,13.65
0,17.12,-979.47,13.29
0,17.00,-978.63,13.65
0,17.00,-978.75,13.65
0,16.04,-978.75,13.17
0,16.64,-979.11,12.81
0,17.48,-979.11,13.29
0,17.84,-978.63,13.77
0,17.48,-979.47,12.93
0,16.88,-979.11,13.77
0,17.72,-978.51,13.05
0,17.12,-978.51,13.29
0,17.72,-978.03,13.77
0,17.12,-979.23,12.69
0,17.36,-978.51,13.29
0,17.48,-978.87,13.29
0,17.12,-978.39,13.77
0,17.36,-978.99,13.29
0,17.60,-978.87,13.05
0,17.36,-978.39,13.29
0,17.60,-979.23,12.93
0,16.76,-979.11,13.41
0,17.12,-978.75,13.65
0,17.36,-978.87,13.53
0,17.48,-978.63,13.29
0,17.72,-980.07,13.89
0,17.24,-979.23,13.17
0,17.48,-977.07,13.29
0,17.24,-978.75,13.65
0,16.52,-978.63,13.41
0,17.24,-978.99,13.41
0,17.60,-978.63,13.05
0,16.04,-978.15,13.29
0,16.76,-978.03,12.57
0,17.12,-979.35,13.53
0,17.12,-978.51,13.17
0,17.48,-979.11,13.53
0,17.00,-978.87,12.93
0,17.12,-979.47,13.17
0,17.36,-978.75,12.93
0,17.36,-979.47,13.65
0,18.56,-978.51,13.53
0,17.60,-978.75,13.53
0,17.60,-978.51,13.53
0,17.24,-979.47,12.81
0,17.48,-978.99,13.41
0,17.72,-979.95,13.05
0,16.76,-979.23,12.69
0,16.76,-979.11,13.17
0,17.24,-977.91,13.29
0,17.48,-979.59,13.05
0,16.88,-978.87,14.37
0,17.60,-978.99,13.41
0,17.48,-979.59,12.93
0,17.48,-979.11,13.05
0,17.48,-978.75,13.29
0,17.60,-979.83,12.93
0,17.12,-978.27,13.29
0,17.24,-978.27,13.41
0,17.24,-978.99,13.29
0,17.48,-978.99,12.93
0,16.76,-978.51,12.81
0,17.12,-979.11,13.05
0,16.88,-978.75,12.81
0,17.24,-978.75,13.05
0,17.48,-978.27,13.17
0,17.48,-979.35,12.93
0,18.08,-978.27,13.77
0,17.48,-978.75,12.57
0,17.60,-979.47,13.65
0,17.60,-978.63,14.25
0,17.36,-979.95,13.41
0,17.36,-978.39,13.05
0,17.12,-978.99,13.41
0,17.36,-977.91,13.29
0,17.00,-978.27,12.69
0,16.40,-979.47,13.29
0,17.36,-979.47,13.89
0,17.24,-979.11,13.17
0,17.24,-978.03,13.05
0,17.48,-979.23,13.05
0,17.00,-978.27,13.53
0,16.88,-978.27,13.65
0,17.36,-978.87,13.65
0,17.48,-979.23,13.05
0,17.24,-978.39,13.05
0,17.12,-978.51,13.17
0,17.84,-978.75,13.89
0,17.48,-977.91,13.17
0,17.48,-978.87,13.65
0,16.76,-979.23,13.17
0,17.12,-978.03,12.93
0,17.12,-977.79,13.41
0,17.60,-978.51,13.17
0,17.72,-978.99,12.93
0,17.84,-978.63,13.65
0,17.36,-978.75,13.41
0,16.88,-978.03,12.21
0,16.76,-979.35,13.29
0,17.60,-979.35,13.29
0,16.76,-978.63,13.29
0,17.60,-978.63,12.93
0,16.40,-979.23,12.69
0,18.08,-978.15,12.81
0,16.76,-978.63,12.69
0,16.88,-978.51,13.05
0,17.24,-978.63,12.33
0,17.36,-978.51,13.17
0,17.72,-978.75,13.05
0,17.60,-979.95,13.29
0,16.76,-978.27,12.93
0,16.76,-978.63,12.69
0,17.72,-978.39,12.81
0,17.12,-978.03,13.53
0,17.84,-978.39,12.69
0,17.24,-978.51,12.33
0,16.40,-978.87,13.05
0,16.52,-978.39,12.69
0,17.60,-979.35,12.81
0,17.72,-978.15,12.57
0,17.36,-978.99,13.17
0,16.76,-978.63,13.17
0,17.36,-979.11,13.29
0,17.60,-978.87,12.57
0,16.76,-978.51,13.05
0,18.08,-978.27,13.05
0,17.96,-978.15,12.21
0,17.84,-978.63,12.81
0,17.00,-978.87,12.57
0,17.36,-978.27,12.93
0,17.48,-978.99,13.17
0,17.00,-978.27,12.69
0,16.88,-978.75,12.33
0,17.72,-979.35,12.81
0,17.24,-978.87,13.05
0,17.60,-978.63,13.41
0,17.72,-978.39,12.57
0,17.72,-978.87,13.05
0,17.36,-978.63,12.21
0,17.24,-979.35,13.29
0,17.12,-977.67,12.93
0,18.20,-978.15,12.45
0,17.24,-978.51,12.81
0,17.00,-978.87,13.05
0,17.36,-977.91,13.05
0,18.08,-978.27,13.17
0,17.12,-978.75,12.81
0,17.36,-978.27,12.69
0,17.48,-978.87,12.93
0,16.64,-978.99,12.21
0,17.24,-978.99,13.17
0,17.12,-978.63,12.93
0,17.48,-978.75,12.45
0,17.60,-978.27,12.69
0,17.72,-978.63,12.45
0,17.24,-978.15,12.69
0,17.48,-979.11,12.69
0,17.72,-978.87,12.69
0,16.76,-978.63,12.57
0,17.00,-978.75,13.05
0,17.72,-978.27,13.17
0,17.72,-978.63,13.17
0,17.72,-979.11,13.05
0,17.24,-978.39,12.93
0,17.24,-979.71,12.93
0,17.36,-978.63,12.45
0,16.40,-978.51,12.93
0,17.72,-977.91,13.29
0,17.00,-978.99,13.17
0,17.00,-978.63,13.41
0,17.00,-979.11,12.69
0,17.36,-978.99,13.29
0,16.88,-978.39,13.17
0,17.84,-979.11,12.81
0,17.84,-978.27,12.81
0,17.60,-978.27,13.53
0,17.00,-979.35,12.81
0,17.48,-978.03,13.17
0,17.12,-979.11,13.29
0,17.60,-978.51,13.77
0,16.76,-978.99,13.41
0,17.60,-978.63,13.17
0,17.96,-978.27,13.05
0,17.60,-978.51,13.41
0,17.60,-979.59,13.41
0,17.24,-978.15,13.53
0,17.84,-978.51,13.53
0,18.08,-978.99,13.29
0,17.00,-978.75,14.01
0,17.00,-978.75,12.81
0,17.36,-978.75,13.05
0,18.20,-977.91,12.93
0,17.48,-978.39,12.81
0,17.84,-978.75,13.77
0,17.84,-979.83,13.65
0,17.12,-978.87,13.29
0,17.84,-979.35,13.77
0,18.08,-978.27,13.17
0,17.36,-978.51,13.41
0,17.48,-977.67,13.05
0,16.64,-978.27,13.29
0,17.60,-979.11,13.05
0,17.36,-978.87,13.17
0,16.88,-978.39,13.65
0,17.60,-978.63,13.17
0,17.24,-979.47,13.17
0,17.12,-978.75,13.77
0,16.76,-978.03,12.69
0,17.24,-978.27,13.41
0,17.00,-978.75,13.29
0,16.04,-979.11,13.65
0,17.84,-978.63,14.01
0,17.60,-978.75,13.29
0,16.64,-978.51,13.65
0,17.84,-979.11,13.17
0,17.24,-978.51,13.29
0,17.84,-979.11,13.41
0,17.24,-979.59,13.89
0,17.48,-978.15,13.77
0,16.40,-978.63,12.93
0,16.88,-979.11,13.65
0,17.60,-978.51,13.05
0,17.60,-977.67,13.17
0,16.88,-979.35,13.05
0,17.48,-979.59,12.57
0,17.84,-978.63,12.81
0,16.76,-978.03,13.53
0,16.64,-979.35,13.41
0,17.12,-978.39,12.57
0,17.48,-977.43,13.05
0,17.36,-978.75,12.57
0,17.60,-979.11,13.17
0,17.36,-978.51,12.81
0,17.48,-979.23,13.29
0,17.36,-978.99,13.29
0,17.36,-978.27,13.41
0,17.48,-978.15,13.53
0,17.72,-978.63,13.17
0,17.48,-978.75,13.17
0,17.24,-978.75,12.93
0,17.60,-978.99,13.41
0,16.88,-978.63,13.29
0,17.36,-979.11,13.17
0,16.52,-978.63,12.81
0,17.36,-978.39,12.69
0,18.20,-978.27,12.93
0,17.12,-979.23,13.41
0,17.00,-977.91,13.17
0,17.24,-979.23,13.05
0,17.36,-979.83,12.45
0,17.24,-978.51,12.93
0,17.36,-978.87,12.93
0,17.72,-978.87,13.29
0,17.48,-979.11,12.81
0,17.48,-977.91,13.29
0,17.72,-978.63,12.81
0,17.60,-979.11,13.29
0,17.84,-978.63,13.05
0,17.36,-978.15,12.93
0,17.36,-978.15,13.17
0,17.36,-978.75,13.41
0,17.00,-978.63,12.57
0,17.12,-977.91,12.93
0,17.48,-978.51,13.05
0,17.12,-978.63,12.57
0,17.00,-978.87,12.93
0,17.60,-978.87,12.69
0,16.76,-977.91,12.57
0,16.64,-978.39,12.93
0,18.20,-979.35,13.17
0,17.12,-978.99,12.93
0,17.48,-978.87,12.69
0,17.60,-978.99,13.65
0,17.24,-979.23,13.53
0,17.24,-980.07,12.93
0,16.76,-979.11,13.29
0,16.40,-978.39,13.29
0,17.84,-978.27,12.93
0,17.00,-977.91,12.69
0,17.12,-978.39,12.21
0,17.72,-978.39,13.77
0,17.24,-978.51,13.05
0,17.36,-978.87,13.17
0,16.76,-978.27,12.81
0,17.12,-979.11,12.33
0,16.28,-978.99,13.29
0,16.76,-978.75,12.69
0,17.24,-979.35,13.17
0,16.04,-978.87,12.69
0,17.12,-978.87,12.81
0,17.24,-977.79,13.29
0,17.72,-978.63,12.93
0,17.12,-978.15,13.29
0,16.28,-979.35,13.17
0,16.88,-978.99,13.53
0,16.64,-978.39,12.57
0,17.36,-978.87,13.17
0,17.84,-978.63,12.93
0,16.76,-978.51,13.17
0,16.52,-978.75,12.81
0,17.12,-978.99,12.93
0,17.00,-978.39,13.05
0,17.84,-978.87,13.05
0,18.08,-979.35,12.81
0,16.76,-979.23,13.53
0,17.12,-978.87,13.65
0,16.64,-978.27,13.89
0,17.12,-978.51,13.53
0,16.76,-979.47,12.93
0,16.76,-978.87,12.81
0,17.12,-978.39,12.93
0,17.00,-978.99,12.93
0,17.36,-978.99,12.57
0,17.96,-979.11,13.41
0,17.00,-979.47,14.13
0,16.76,-978.63,13.65
0,16.40,-978.39,13.29
0,17.60,-978.87,12.57
0,16.52,-978.39,13.65
0,16.76,-978.51,13.29
0,16.52,-978.63,13.41
0,17.72,-978.75,13.89
0,16.52,-979.59,13.53
0,16.52,-978.99,13.65
0,17.12,-978.87,13.17
0,17.24,-978.63,12.81
0,17.36,-978.63,13.29
0,16.40,-978.75,13.05
0,17.36,-979.47,12.81
0,17.00,-978.99,13.41
0,17.00,-978.63,13.41
0,16.16,-978.99,13.41
0,17.84,-979.59,13.41
0,17.00,-979.83,13.05
0,17.36,-978.75,13.89
0,17.00,-978.51,13.41
0,17.60,-979.59,13.05
0,17.36,-978.99,13.41
0,17.24,-977.67,13.41
0,16.52,-978.39,12.81
0,17.00,-978.99,14.01
0,17.24,-978.15,14.01
0,17.96,-977.91,12.93
0,17.12,-979.11,13.05
0,17.00,-978.63,13.05
0,16.52,-978.51,13.65
0,16.76,-978.39,12.81
0,16.64,-978.39,12.81
0,16.88,-978.39,13.17
0,17.00,-978.75,12.57
0,17.48,-979.11,13.05
0,17.12,-978.99,13.65
0,17.12,-978.15,12.93
0,17.24,-977.79,12.45
0,16.76,-979.11,12.69
0,17.24,-978.15,12.81
0,17.36,-978.27,12.45
0,17.48,-978.75,12.81
0,17.12,-978.75,12.45
0,17.12,-978.99,13.05
0,17.00,-978.75,13.77
0,17.12,-978.51,13.29
0,17.00,-979.11,13.29
0,17.48,-978.99,13.41
0,16.88,-978.51,13.05
0,17.36,-979.47,13.17
0,17.24,-978.75,13.05
0,17.60,-979.11,13.77
0,17.60,-979.47,13.05
0,16.28,-978.27,13.65
0,18.08,-978.75,13.65
0,16.64,-979.11,13.89
0,17.00,-979.11,12.81
0,17.36,-978.15,12.93
0,17.24,-978.39,13.05
0,17.24,-978.27,13.17
0,17.72,-978.87,13.05
0,17.72,-978.15,12.93
0,16.64,-979.71,12.45
0,17.48,-978.87,13.05
0,17.00,-978.51,12.09
0,17.24,-978.99,12.57
0,16.64,-979.35,12.33
0,16.40,-977.91,13.41
0,16.52,-978.63,13.29
0,16.28,-978.39,13.05
0,16.88,-978.75,13.17
0,17.36,-978.75,12.93
0,17.00,-978.63,12.93
0,16.64,-978.75,12.93
0,17.72,-978.75,14.13
0,17.24,-978.15,13.65
0,17.84,-978.51,12.93
0,17.60,-978.27,12.69
0,17.60,-978.39,13.05
0,16.76,-978.99,12.93
0,17.00,-978.99,12.93
0,18.08,-978.87,12.57
0,17.72,-978.39,12.93
0,16.88,-978.63,13.41
0,17.24,-978.39,12.93
0,17.12,-978.99,13.53
0,17.48,-978.15,13.29
0,17.00,-977.91,13.41
0,17.36,-979.11,12.81
0,17.24,-978.39,12.93
0,17.24,-978.27,13.17
0,18.20,-978.99,13.17
0,17.84,-978.63,13.29
0,16.88,-978.99,13.65
0,17.84,-978.27,12.45
0,17.12,-978.75,12.93
0,17.24,-978.99,12.81
0,17.12,-978.75,13.29
0,17.36,-978.51,12.69
0,17.12,-978.27,12.93
0,17.36,-978.27,12.69
0,17.48,-979.23,13.65
0,16.52,-978.75,12.93
0,18.08,-979.59,12.81
0,17.24,-979.11,13.41
0,17.36,-978.99,13.29
0,17.72,-978.75,12.81
0,16.88,-977.79,12.69
0,16.64,-979.23,12.93
0,18.32,-978.87,13.53
0,16.88,-978.39,13.05
0,17.24,-978.51,12.33
0,17.24,-978.51,13.17
0,17.60,-978.87,13.05
0,16.64,-978.87,13.05
0,17.00,-978.99,12.81
0,16.76,-978.75,13.53
0,16.88,-978.51,12.93
0,17.00,-978.39,13.05
0,17.48,-979.23,12.69
0,17.48,-977.67,12.81
0,17.12,-978.75,13.05
0,17.72,-979.35,13.53
0,18.08,-978.75,13.53
0,17.24,-979.11,12.93
0,17.36,-978.87,13.41
0,17.72,-978.63,12.81
0,16.76,-978.15,12.81
0,17.24,-978.27,13.05
0,17.84,-979.47,13.53
0,16.76,-978.51,12.93
0,18.08,-978.15,12.93
0,16.76,-978.87,13.41
0,17.96,-978.87,13.05
0,17.48,-978.99,12.93
0,18.08,-978.15,13.05
0,17.12,-978.63,12.69
0,17.60,-978.51,13.05
0,16.64,-979.11,12.93
0,17.96,-978.99,13.05
0,17.84,-978.63,14.48
0,17.60,-979.11,12.81
0,17.36,-978.99,12.33
0,17.12,-978.39,13.29
0,17.36,-977.19,13.17
0,18.08,-978.51,13.65
0,17.72,-978.51,13.41
0,17.00,-979.23,12.81
0,17.24,-978.63,12.93
0,17.72,-978.63,13.05
0,16.52,-978.51,13.05
0,17.00,-978.63,12.81
0,17.48,-978.51,13.17
0,17.24,-977.79,13.41
0,16.40,-978.39,12.57
0,16.64,-979.11,13.29
0,17.24,-978.63,13.17
0,17.12,-978.75,12.93
0,17.24,-978.75,13.05
0,17.48,-978.51,12.57
0,17.12,-978.39,13.89
0,17.00,-978.99,12.93
0,16.52,-978.27,13.05
0,17.72,-978.75,13.53
0,17.24,-979.11,13.17
0,16.28,-978.51,13.29
0,17.12,-979.23,12.93
0,17.24,-978.87,12.33
0,17.12,-978.99,13.65
0,18.08,-978.03,12.93
0,18.20,-978.03,13.53
0,17.36,-979.23,13.53
0,17.00,-978.87,12.93
0,17.12,-978.39,13.17
0,17.00,-978.15,12.33
0,17.48,-978.87,12.93
0,17.12,-979.59,13.53
0,16.88,-978.51,12.81
0,17.00,-978.87,12.69
0,17.36,-977.79,13.41
0,16.88,-978.99,12.93
0,17.12,-978.51,12.93
0,17.96,-977.79,12.45
0,17.72,-978.39,12.81
0,17.24,-978.03,12.93
0,17.96,-978.15,12.69
0,17.48,-978.99,13.89
0,17.00,-978.51,13.29
0,17.72,-977.67,12.45
0,17.00,-978.63,12.93
0,17.36,-979.11,13.29
0,17.12,-978.99,13.05
0,16.76,-978.63,12.81
0,16.64,-978.51,13.05
0,18.44,-978.27,13.17
0,17.72,-978.39,12.57
0,18.20,-978.27,12.81
0,17.48,-978.87,12.93
0,17.36,-979.11,13.05
0,17.60,-978.51,13.65
0,17.84,-978.27,12.93
0,17.84,-978.63,13.29
0,17.24,-978.99,13.29
0,18.20,-978.75,13.05
0,17.84,-978.27,13.53
0,17.60,-979.11,13.05
0,17.12,-979.11,13.17
0,17.48,-977.55,13.17
0,18.08,-977.91,13.53
0,17.12,-978.99,12.69
0,16.52,-978.63,13.17
0,17.84,-978.63,12.57
0,17.24,-979.23,13.05
0,17.48,-978.03,12.57
0,16.88,-978.03,12.93
0,17.60,-979.23,13.05
0,18.08,-978.27,12.93
0,17.36,-978.87,12.93
0,17.60,-978.63,13.89
0,18.08,-978.87,12.69
0,17.84,-978.03,12.21
0,16.76,-978.27,11.73
0,16.40,-978.87,13.05
0,16.76,-978.39,12.69
0,17.12,-979.35,12.57
0,17.84,-978.75,12.93
0,17.00,-978.51,12.57
0,17.36,-977.55,12.93
0,17.72,-978.75,12.57
0,17.00,-978.99,13.17
0,16.64,-978.87,12.57
0,17.60,-979.11,13.65
0,17.48,-978.87,13.17
0,16.88,-979.83,12.45
0,17.24,-979.23,12.93
0,17.60,-978.39,12.93
0,17.60,-978.63,12.81
0,17.36,-978.99,12.93
0,17.72,-978.75,13.41
0,17.12,-978.75,13.53
0,16.76,-979.47,12.81
0,17.12,-979.23,13.41
0,17.36,-978.75,13.65
0,17.36,-979.11,12.93
0,16.64,-979.23,13.41
0,17.72,-979.11,13.29
0,16.52,-978.51,13.17
0,17.60,-978.75,12.69
0,17.24,-979.59,12.81
0,17.24,-979.71,13.17
0,17.12,-978.03,12.57
0,16.88,-978.39,12.81
0,17.24,-977.91,13.05
0,17.96,-978.99,12.09
0,17.00,-979.23,13.17
0,17.48,-978.27,13.17
0,17.12,-979.23,12.57
0,16.88,-978.51,12.93
0,17.24,-979.71,13.05
0,16.64,-978.15,12.45
0,17.72,-978.99,13.05
0,17.72,-978.75,12.81
0,17.24,-978.15,12.93
0,16.64,-978.75,12.21
0,16.88,-978.63,13.17
0,16.88,-978.27,12.69
0,17.12,-978.87,13.53
0,17.60,-978.39,12.69
0,17.48,-978.51,12.81
0,17.72,-978.51,12.45
0,17.84,-978.27,12.81
0,16.16,-978.39,12.93
0,17.00,-977.67,13.29
0,17.48,-979.35,13.17
0,17.48,-978.27,12.69
0,17.36,-978.87,12.33
0,17.12,-978.99,12.21
0,17.72,-978.51,12.93
0,17.48,-979.23,12.69
0,18.20,-979.47,13.17
0,17.36,-978.63,13.89
0,17.24,-978.63,12.93
0,17.96,-978.51,12.09
0,16.76,-978.63,12.45
0,17.48,-977.91,13.29
0,17.36,-978.63,12.81
0,17.60,-978.63,13.17
0,17.12,-978.51,13.05
0,17.72,-978.87,13.05
0,17.48,-978.75,12.93
0,17.48,-979.71,13.53
0,17.24,-978.75,13.29
0,17.24,-978.27,13.41
0,17.60,-978.27,13.17
0,17.48,-978.51,12.93
0,17.24,-978.99,12.93
0,17.72,-978.63,12.69
0,17.24,-978.87,13.17
0,16.88,-978.51,13.17
0,17.48,-978.63,13.29
0,17.72,-979.23,13.05
0,17.00,-978.51,12.81
0,17.96,-978.63,12.93
0,17.36,-977.91,12.81
0,17.24,-979.11,12.81
0,16.88,-979.11,12.93
0,17.72,-978.51,12.81
0,16.88,-978.99,13.29
0,17.72,-979.47,12.81
0,17.24,-979.23,12.69
0,17.84,-978.99,12.81
0,17.84,-978.63,13.17
0,17.00,-978.87,13.29
0,17.72,-978.75,13.17
0,17.00,-978.15,13.29
0,17.12,-978.51,13.05
0,17.60,-978.75,13.29
0,17.36,-979.11,12.93
0,17.72,-978.15,13.53
0,17.72,-978.99,13.29
0,16.64,-978.99,13.29
0,17.48,-978.87,13.53
0,17.24,-978.99,11.97
0,17.72,-978.75,12.81
0,17.24,-978.75,12.81
0,16.64,-979.35,13.77
0,16.76,-979.23,12.69
0,17.00,-978.87,13.29
0,17.24,-978.75,13.17
0,17.00,-978.27,13.29
0,16.64,-978.75,13.17
0,17.00,-978.39,12.33
0,16.64,-978.63,13.41
0,17.00,-978.63,13.29
0,17.00,-979.11,12.81
0,17.36,-978.99,13.05
0,17.36,-979.47,13.53
0,17.12,-979.23,13.29
0,17.36,-978.63,13.53
0,16.88,-978.99,13.41
0,16.52,-978.39,13.53
0,17.24,-979.11,13.05
0,17.48,-979.23,13.29
0,16.64,-979.23,12.69
0,17.24,-978.75,13.29
0,17.36,-979.11,13.17
0,16.52,-979.23,13.29
0,16.28,-979.35,13.89
0,16.28,-979.47,13.29
0,16.76,-979.11,13.41
0,17.24,-977.55,13.29
0,17.96,-978.99,13.29
0,17.72,-979.23,12.69
0,17.12,-979.23,14.01
0,17.60,-978.03,13.05
0,18.08,-978.27,12.93
0,17.36,-978.51,13.17
0,17.48,-977.55,13.17
0,17.12,-978.87,12.93
0,16.40,-978.87,12.45
0,17.24,-979.35,12.93
0,17.48,-978.87,12.45
0,17.24,-978.75,13.41
0,17.48,-978.39,12.69
0,17.00,-978.63,13.17
0,16.52,-979.23,12.57
0,17.24,-979.35,13.05
0,17.84,-979.23,12.93
0,17.24,-978.63,12.93
0,16.52,-978.63,13.17
0,17.48,-978.39,12.33
0,17.12,-978.15,12.93
0,17.12,-977.79,13.41
0,17.60,-979.23,14.25
0,17.60,-978.39,13.17
0,17.84,-978.51,12.69
0,16.88,-979.23,13.53
0,17.48,-978.39,12.81
0,17.00,-978.99,12.81
0,17.00,-979.35,13.65
0,16.64,-979.11,13.53
0,16.88,-978.99,12.93
0,17.00,-978.51,12.93
0,17.60,-978.87,12.93
0,17.12,-979.11,12.93
0,16.76,-978.39,13.53
0,18.08,-978.51,13.53
0,17.36,-979.35,13.05
0,17.60,-978.99,12.33
0,17.24,-978.63,13.41
0,17.84,-978.99,13.29
0,17.72,-978.87,13.05
0,17.36,-979.83,13.17
0,17.00,-979.11,13.41
0,17.72,-978.51,12.81
0,17.24,-979.71,13.29
0,17.48,-978.75,13.65
0,17.12,-978.75,13.05
0,17.48,-979.23,12.93
0,17.24,-978.63,13.17
0,17.48,-979.23,13.53
0,16.64,-978.39,12.81
0,17.36,-979.11,12.81
0,17.24,-978.63,12.81
0,17.24,-978.51,13.17
0,17.60,-979.11,12.81
0,16.76,-978.63,13.89
0,16.40,-978.75,12.93
0,17.00,-978.63,14.01
0,17.00,-978.39,13.05
0,17.24,-978.75,12.81
0,17.48,-978.75,13.65
0,17.00,-978.75,14.13
0,16.88,-978.39,13.29
0,16.64,-978.75,13.17
0,17.48,-978.03,13.29
0,17.24,-978.27,13.05
0,17.48,-978.75,12.81
0,17.12,-979.23,13.65
0,16.64,-978.87,13.41
0,17.60,-979.95,13.53
0,17.24,-978.63,13.65
0,16.88,-978.99,13.29
0,17.24,-978.99,13.77
0,18.32,-977.67,13.77
0,16.76,-979.59,12.93
0,17.24,-978.63,13.41
0,17.00,-979.59,13.29
0,17.12,-978.51,13.29
0,16.40,-979.23,13.05
0,17.12,-978.51,13.29
0,17.84,-977.79,13.05
0,17.24,-979.47,13.29
0,16.76,-979.11,13.77
0,17.84,-977.79,12.81
0,16.64,-979.23,13.89
0,18.32,-978.27,12.57
0,17.36,-978.99,13.17
0,17.48,-977.91,13.89
0,17.24,-978.75,12.69
0,17.00,-978.39,12.93
0,17.36,-978.15,13.29
0,17.60,-978.63,13.17
0,16.64,-978.99,14.01
0,17.12,-978.27,13.17
0,17.36,-978.75,13.17
0,16.88,-978.75,13.65
0,16.52,-978.51,12.93
0,17.36,-978.63,13.05
0,17.00,-978.75,13.17
0,17.36,-978.75,13.89
0,17.60,-978.75,12.81
0,17.48,-979.23,13.05
0,17.96,-978.39,12.81
0,17.72,-978.51,12.69
0,17.72,-979.59,13.17
0,17.48,-978.99,13.17
0,17.96,-978.99,13.65
0,17.84,-978.87,13.29
0,17.00,-978.99,12.93
0,17.60,-979.11,12.69
0,16.76,-978.27,13.05
0,17.48,-978.63,13.05
0,16.88,-978.63,12.57
0,16.76,-978.87,13.17
0,16.76,-979.35,12.93
0,17.48,-979.11,12.81
0,17.24,-978.87,13.41
0,17.24,-978.75,12.93
0,16.76,-978.99,13.05
0,17.48,-978.51,13.29
0,17.84,-979.59,12.57
0,17.12,-979.35,13.53
0,17.72,-978.39,13.29
0,17.96,-978.27,12.81
0,17.12,-978.87,12.93
0,17.84,-978.63,13.05
0,16.64,-978.39,13.29
0,17.24,-979.23,12.81
0,16.88,-978.63,12.93
0,17.84,-978.03,13.17
0,16.28,-978.75,12.81
0,17.36,-979.11,13.53
0,17.00,-978.63,13.77
0,17.36,-979.11,12.93
0,18.08,-978.63,13.53
0,17.84,-978.15,13.41
0,16.64,-978.51,12.69
0,17.60,-978.75,13.41
0,17.24,-978.87,13.29
0,17.36,-978.63,14.13
0,16.88,-978.75,13.41
0,18.32,-978.27,12.81
0,18.56,-979.11,12.93
0,17.84,-978.75,13.05
0,17.00,-979.23,13.77
0,16.76,-978.27,13.17
0,17.36,-978.51,13.29
0,17.48,-978.63,12.93
0,17.96,-978.51,13.41
0,18.08,-978.75,13.41
0,16.76,-978.63,12.93
0,17.00,-978.51,13.17
0,17.12,-978.27,13.17
0,17.24,-978.27,12.45
0,18.08,-979.35,13.29
0,17.48,-978.75,12.57
0,18.08,-978.99,13.41
0,17.72,-979.23,12.93
0,17.36,-978.87,12.93
0,16.76,-978.63,13.53
0,18.20,-978.75,13.05
0,16.52,-979.83,12.45
0,17.72,-978.27,13.05
0,17.36,-978.75,13.17
0,17.48,-977.79,13.17
0,17.48,-978.99,13.17
0,18.32,-978.03,13.53
0,16.88,-978.87,13.29
0,17.36,-978.75,13.17
0,17.24,-978.87,13.65
0,16.76,-978.75,13.05
0,17.48,-978.63,13.17
0,17.36,-978.87,13.05
0,17.24,-978.39,13.05
0,17.60,-978.63,13.53
0,18.08,-978.39,14.01
0,17.12,-979.95,12.69
0,18.08,-978.87,13.89
0,17.12,-978.51,13.05
0,17.36,-978.87,13.41
0,17.00,-979.23,12.81
0,17.00,-979.11,12.81
0,17.00,-979.59,13.65
0,17.36,-978.63,12.93
0,17.12,-978.51,12.33
0,17.60,-979.35,13.29
0,17.12,-977.67,12.81
0,17.48,-979.23,13.77
0,17.12,-978.87,12.81
0,17.84,-978.87,12.57
0,17.36,-978.39,13.53
0,17.24,-978.75,13.17
0,17.36,-979.23,13.17
0,17.24,-978.87,12.81
0,17.12,-978.99,12.81
0,17.36,-978.51,12.81
0,17.12,-978.39,12.57
0,17.60,-978.39,12.93
0,17.48,-978.63,14.13
0,17.72,-978.63,13.17
0,17.48,-978.63,12.45
0,17.12,-978.87,13.41
0,16.88,-979.35,12.93
0,17.48,-978.87,13.41
0,17.12,-978.75,13.41
0,16.04,-978.75,12.93
0,17.00,-978.63,13.17
0,17.24,-978.63,13.29
0,17.96,-978.63,13.17
0,17.84,-978.27,12.69
0,17.36,-978.51,13.65
0,16.40,-978.51,13.53
0,17.48,-978.87,13.29
0,17.48,-978.63,12.57
0,17.24,-978.99,14.01
0,17.00,-978.63,13.29
0,16.52,-979.23,13.77
0,17.72,-978.99,12.45
0,16.28,-978.63,12.81
0,16.64,-978.39,13.41
0,17.24,-978.63,13.05
0,17.12,-978.39,13.17
0,17.12,-978.27,13.17
0,17.48,-979.11,12.81
0,17.72,-978.27,12.45
0,17.12,-978.03,13.29
0,17.24,-978.63,12.81
0,17.00,-978.15,12.69
0,17.00,-978.99,13.41
0,17.24,-979.23,12.81
0,17.00,-979.11,13.17
0,17.12,-978.99,13.17
0,17.96,-979.11,13.53
0,17.48,-979.11,13.53
0,16.28,-979.11,13.77
0,16.76,-978.15,12.81
0,17.00,-979.47,13.05
0,17.60,-979.35,12.93
0,17.00,-978.51,13.17
0,17.24,-978.63,12.45
0,17.48,-978.99,13.41
0,17.48,-978.75,12.69
0,17.60,-978.75,12.93
0,16.52,-978.63,12.93
0,16.88,-978.27,12.81
0,16.64,-978.87,12.69
0,17.24,-978.27,11.97
0,17.60,-978.63,13.29
0,17.00,-979.35,12.81
0,15.92,-978.87,12.81
0,17.12,-978.99,12.81
0,17.60,-978.63,12.21
0,17.48,-978.99,13.53
0,17.60,-978.39,12.09
0,17.00,-979.23,13.05
0,17.36,-978.87,12.81
0,17.60,-978.75,13.65
0,17.24,-978.39,12.81
0,17.24,-978.27,13.05
0,17.36,-978.87,12.69
0,17.24,-978.99,13.41
0,17.72,-979.35,13.29
0,16.28,-978.87,13.17
0,17.12,-978.27,12.45
0,17.24,-979.35,13.17
0,17.36,-978.63,12.09
0,17.36,-978.03,13.05
0,16.64,-978.75,12.93
0,17.48,-978.15,12.45
0,17.96,-978.51,13.29
0,16.88,-978.51,12.33
0,17.36,-978.87,12.81
0,17.60,-978.39,12.33
0,17.24,-978.39,12.69
0,17.48,-978.63,12.21
0,17.00,-978.03,12.93
0,17.36,-979.35,12.93
0,17.24,-978.75,12.93
0,17.24,-978.87,12.57
0,17.00,-978.99,13.17
0,17.12,-978.15,13.29
0,17.96,-979.95,12.33
0,17.48,-978.99,13.29
0,17.48,-979.47,12.69
0,17.48,-978.87,12.93
0,17.12,-978.99,13.89
0,16.76,-978.39,12.69
0,17.00,-979.11,12.93
0,17.96,-978.39,14.01
0,16.88,-979.11,13.17
0,16.16,-978.75,12.57
0,17.60,-978.75,12.93
0,17.84,-978.39,13.05
0,17.00,-978.87,13.05
0,17.24,-978.87,13.05
0,17.60,-978.39,12.45
0,17.12,-978.75,13.05
0,17.96,-978.75,12.93
0,17.24,-979.47,12.81
0,17.72,-978.99,13.05
0,16.88,-979.11,13.29
0,16.40,-978.51,13.65
0,17.60,-978.75,13.29
0,17.84,-979.83,12.81
0,17.24,-978.63,12.81
0,18.32,-978.27,13.29
0,17.48,-978.87,13.05
0,17.48,-978.27,12.09
0,18.32,-979.71,13.77
0,17.60,-979.35,12.57
0,17.60,-978.63,13.65
0,16.40,-978.99,13.29
0,17.72,-978.27,13.17
0,17.48,-978.63,13.05
0,17.60,-979.35,13.41
0,17.48,-978.51,13.41
0,17.48,-979.23,13.29
0,16.76,-978.27,13.05
0,17.00,-978.87,12.81
0,17.24,-978.39,13.29
0,16.52,-979.11,13.53
0,16.64,-979.47,12.93
0,17.36,-979.47,13.65
0,17.00,-978.27,13.05
0,17.84,-978.39,12.81
0,17.12,-978.75,12.93
0,17.72,-979.23,13.53
0,16.88,-978.87,13.53
0,17.48,-978.15,13.89
0,17.36,-979.23,13.17
0,17.00,-978.63,13.65
0,17.96,-979.23,12.81
0,17.60,-978.51,12.45
0,17.12,-978.51,13.05
0,17.00,-979.35,13.65
0,17.36,-978.99,13.41
0,17.00,-979.11,13.05
0,17.00,-978.51,13.65
0,18.20,-978.63,13.17
0,17.12,-977.91,13.29
0,17.36,-978.87,12.33
0,17.00,-978.87,13.17
0,17.84,-978.75,13.65
0,16.64,-979.35,13.65
0,17.48,-978.75,13.05
0,18.08,-978.75,13.41
0,17.12,-978.63,12.93
0,16.76,-979.47,13.29
0,17.12,-978.51,12.93
0,17.24,-979.23,12.81
0,17.96,-978.27,12.57
0,17.24,-978.63,13.17
0,17.00,-978.51,13.05
0,17.24,-979.23,12.93
0,17.48,-978.87,12.57
0,17.24,-979.23,12.69
0,17.24,-978.87,13.05
0,17.36,-978.15,12.81
0,17.48,-978.75,13.77
0,17.60,-978.87,13.05
0,17.48,-978.39,12.81
0,17.36,-978.63,12.81
0,17.48,-978.75,12.57
0,16.76,-978.63,12.69
0,17.00,-978.27,12.33
0,17.84,-978.39,13.17
0,17.36,-979.11,12.57
0,16.76,-978.87,13.41
0,17.24,-978.63,12.57
0,17.84,-978.27,12.45
0,17.48,-978.63,13.77
0,17.12,-978.87,13.65
0,17.36,-978.99,13.05
